timestamp,speed,angle,yaw,pitch,roll,acc_x,acc_y,acc_z,gyro_x,gyro_y,gyro_z,x,y,z,static_flag,impact_x,impact_y,impact_z,up_hill,down_hill,on_slope
16:59:58.909219,,,,,,,,,,,,,,,1,0,0,0,0,0,0
16:59:58.928220,,,,,,,,,,,,,,,1,0,0,0,0,0,0
16:59:58.952535,,,,,,,,,,,,,,,1,0,0,0,0,0,0
16:59:58.953531,,,,,,0.0,0.0,0.0,0.0,0.0,0.0,,,,1,0,0,0,0,0,0
16:59:58.953531,"[0, 0, 0, 0]","[0, 0, 0, 0]",,,,0.0,0.0,0.0,0.0,0.0,0.0,,,,1,0,0,0,0,0,0
16:59:58.981872,"[0, 0, 0, 0]","[0, 0, 0, 0]",,,,0.0,0.0,0.0,0.0,0.0,0.0,,,,1,0,0,0,0,0,0
16:59:58.989895,"[0, 0, 0, 0]","[0, 0, 0, 0]",,,,0.0,0.0,0.0,0.0,0.0,0.0,,,,0,0,0,0,0,0,0
16:59:59.012563,"[1, 1, -1, 4]","[29266, 6817, 8539, 22999]",,,,0.0,0.0,0.0,0.0,0.0,0.0,,,,0,0,0,0,0,0,0
16:59:59.012563,"[1, 1, -1, 4]","[29266, 6817, 8539, 22999]",,,,0.0,0.0,0.0,0.0,0.0,0.0,,,,0,0,0,0,0,0,0
16:59:59.028426,"[1, 1, -1, 4]","[29266, 6817, 8539, 22999]",,,,0.0,0.0,0.0,0.0,0.0,0.0,,,,0,0,0,0,0,0,0
16:59:59.051586,"[4, -11, -3, 12]","[29368, 6742, 8447, 23070]",,,,0.0,0.0,0.0,0.0,0.0,0.0,,,,0,0,0,0,0,0,0
16:59:59.052581,"[4, -11, -3, 12]","[29368, 6742, 8447, 23070]",,,,0.0,0.0,0.0,0.0,0.0,0.0,,,,0,0,0,0,0,0,0
16:59:59.052581,"[4, -11, -3, 12]","[29368, 6742, 8447, 23070]",,,,-0.00465,0.01158,-0.99668,0.00279,0.00979,0.00189,,,,0,0,0,0,0,0,0
16:59:59.072958,"[4, -11, -3, 12]","[29368, 6742, 8447, 23070]",,,,-0.00465,0.01158,-0.99668,0.00279,0.00979,0.00189,,,,0,0,0,0,0,0,0
16:59:59.092999,"[4, -11, -3, 12]","[29368, 6742, 8447, 23070]",,,,-0.00465,0.01158,-0.99668,0.00279,0.00979,0.00189,,,,0,0,0,0,0,0,0
16:59:59.093982,"[4, -11, -3, 12]","[29368, 6742, 8447, 23070]",-0.54,-0.27,-0.55,-0.00465,0.01158,-0.99668,0.00279,0.00979,0.00189,,,,0,0,0,0,0,0,0
16:59:59.108873,"[58, -66, -29, 37]","[30229, 5826, 7917, 23593]",-0.54,-0.27,-0.55,-0.00465,0.01158,-0.99668,0.00279,0.00979,0.00189,,,,0,0,0,0,0,0,0
16:59:59.108873,"[58, -66, -29, 37]","[30229, 5826, 7917, 23593]",-0.54,-0.27,-0.55,-0.00465,0.01158,-0.99668,0.00279,0.00979,0.00189,,,,0,0,0,0,0,0,0
16:59:59.129909,"[58, -66, -29, 37]","[30229, 5826, 7917, 23593]",-0.54,-0.27,-0.55,-0.00465,0.01158,-0.99668,0.00279,0.00979,0.00189,,,,0,0,0,0,0,0,0
16:59:59.151810,"[57, -91, -114, 56]","[32161, 3552, 5801, 24886]",-0.54,-0.27,-0.55,-0.00465,0.01158,-0.99668,0.00279,0.00979,0.00189,,,,0,0,0,0,0,0,0
16:59:59.151810,"[57, -91, -114, 56]","[32161, 3552, 5801, 24886]",-0.54,-0.27,-0.55,0.23713,0.02427,-1.00401,0.0198,0.0366,-0.06406,,,,0,0,0,0,0,0,0
16:59:59.151810,"[57, -91, -114, 56]","[32161, 3552, 5801, 24886]",-0.54,-0.27,-0.55,0.23713,0.02427,-1.00401,0.0198,0.0366,-0.06406,,,,0,0,0,0,0,0,0
16:59:59.168876,"[57, -91, -114, 56]","[32161, 3552, 5801, 24886]",-0.54,-0.27,-0.55,0.23713,0.02427,-1.00401,0.0198,0.0366,-0.06406,,,,0,0,0,0,0,0,0
16:59:59.190151,"[57, -91, -114, 56]","[32161, 3552, 5801, 24886]",-0.54,-0.27,-0.55,0.23713,0.02427,-1.00401,0.0198,0.0366,-0.06406,,,,0,0,0,0,0,0,0
16:59:59.210845,"[49, -70, -75, 63]","[947, 1248, 3768, 26670]",-0.54,-0.27,-0.55,0.23713,0.02427,-1.00401,0.0198,0.0366,-0.06406,,,,0,0,0,0,0,0,0
16:59:59.211835,"[49, -70, -75, 63]","[947, 1248, 3768, 26670]",-0.54,-0.27,-0.55,0.23713,0.02427,-1.00401,0.0198,0.0366,-0.06406,,,,0,0,0,0,0,0,0
16:59:59.228636,"[49, -70, -75, 63]","[947, 1248, 3768, 26670]",-0.54,-0.27,-0.55,0.23713,0.02427,-1.00401,0.0198,0.0366,-0.06406,,,,0,0,0,0,0,0,0
16:59:59.248960,"[49, -70, -75, 63]","[947, 1248, 3768, 26670]",-0.54,-0.27,-0.55,0.23713,0.02427,-1.00401,0.0198,0.0366,-0.06406,,,,0,0,0,0,0,0,0
16:59:59.250960,"[69, -67, -65, 68]","[2701, 32209, 1891, 28604]",-0.54,-0.27,-0.55,0.19165,-0.00747,-1.00698,-0.03702,-0.03158,0.12028,,,,0,0,0,0,0,0,0
16:59:59.250960,"[69, -67, -65, 68]","[2701, 32209, 1891, 28604]",-0.54,-0.27,-0.55,0.19165,-0.00747,-1.00698,-0.03702,-0.03158,0.12028,,,,0,0,0,0,0,0,0
16:59:59.273430,"[69, -67, -65, 68]","[2701, 32209, 1891, 28604]",-0.54,-0.27,-0.55,0.19165,-0.00747,-1.00698,-0.03702,-0.03158,0.12028,,,,0,0,0,0,0,0,0
16:59:59.292452,"[69, -67, -65, 68]","[2701, 32209, 1891, 28604]",-0.39,-0.6,-0.55,0.19165,-0.00747,-1.00698,-0.03702,-0.03158,0.12028,,,,0,0,0,0,0,0,0
16:59:59.293429,"[69, -67, -65, 68]","[2701, 32209, 1891, 28604]",-0.39,-0.6,-0.55,0.19165,-0.00747,-1.00698,-0.03702,-0.03158,0.12028,,,,0,0,0,0,0,0,0
16:59:59.296431,"[50, -53, -60, 54]","[4186, 30605, 215, 30147]",-0.39,-0.6,-0.55,0.19165,-0.00747,-1.00698,-0.03702,-0.03158,0.12028,,,,0,0,0,0,0,0,0
16:59:59.296431,"[50, -53, -60, 54]","[4186, 30605, 215, 30147]",-0.39,-0.6,-0.55,0.19165,-0.00747,-1.00698,-0.03702,-0.03158,0.12028,,,,0,0,0,0,0,0,0
16:59:59.330660,"[50, -53, -60, 54]","[4186, 30605, 215, 30147]",-0.39,-0.6,-0.55,0.19165,-0.00747,-1.00698,-0.03702,-0.03158,0.12028,,,,0,0,0,0,0,0,0
16:59:59.351535,"[46, -46, -53, 36]","[5405, 29277, 31671, 31405]",-0.39,-0.6,-0.55,0.19165,-0.00747,-1.00698,-0.03702,-0.03158,0.12028,,,,0,0,0,0,0,0,0
16:59:59.351535,"[46, -46, -53, 36]","[5405, 29277, 31671, 31405]",-0.39,-0.6,-0.55,-0.19029,-0.02025,-1.02175,-0.0113,-0.02543,0.07221,,,,0,0,0,0,0,0,0
16:59:59.351535,"[46, -46, -53, 36]","[5405, 29277, 31671, 31405]",-0.39,-0.6,-0.55,-0.19029,-0.02025,-1.02175,-0.0113,-0.02543,0.07221,,,,0,0,0,0,0,0,0
16:59:59.370889,"[46, -46, -53, 36]","[5405, 29277, 31671, 31405]",-0.39,-0.6,-0.55,-0.19029,-0.02025,-1.02175,-0.0113,-0.02543,0.07221,,,,0,0,0,0,0,0,0
16:59:59.389866,"[46, -46, -53, 36]","[5405, 29277, 31671, 31405]",-0.39,-0.6,-0.55,-0.19029,-0.02025,-1.02175,-0.0113,-0.02543,0.07221,,,,0,0,0,0,0,0,0
16:59:59.412712,"[80, -72, -77, 71]","[8739, 26304, 28474, 1694]",-0.39,-0.6,-0.55,-0.19029,-0.02025,-1.02175,-0.0113,-0.02543,0.07221,,,,0,0,0,0,0,0,0
16:59:59.412712,"[80, -72, -77, 71]","[8739, 26304, 28474, 1694]",-0.39,-0.6,-0.55,-0.19029,-0.02025,-1.02175,-0.0113,-0.02543,0.07221,,,,0,0,0,0,0,0,0
16:59:59.428966,"[80, -72, -77, 71]","[8739, 26304, 28474, 1694]",-0.39,-0.6,-0.55,-0.19029,-0.02025,-1.02175,-0.0113,-0.02543,0.07221,,,,0,0,0,0,0,0,0
16:59:59.452030,"[80, -72, -77, 71]","[8739, 26304, 28474, 1694]",-0.39,-0.6,-0.55,-0.19029,-0.02025,-1.02175,-0.0113,-0.02543,0.07221,,,,0,0,0,0,0,0,0
16:59:59.452349,"[80, -72, -77, 71]","[8739, 26304, 28474, 1694]",-0.39,-0.6,-0.55,0.07072,0.00372,-0.98574,0.00176,-0.01428,-0.01891,,,,0,0,0,0,0,0,0
16:59:59.472111,"[88, -61, -70, 79]","[10609, 24359, 26474, 3761]",-0.39,-0.6,-0.55,0.07072,0.00372,-0.98574,0.00176,-0.01428,-0.01891,,,,0,0,0,0,0,0,0
16:59:59.473085,"[88, -61, -70, 79]","[10609, 24359, 26474, 3761]",-0.39,-0.6,-0.55,0.07072,0.00372,-0.98574,0.00176,-0.01428,-0.01891,,,,0,0,0,0,0,0,0
16:59:59.492557,"[88, -61, -70, 79]","[10609, 24359, 26474, 3761]",-0.39,-0.6,-0.55,0.07072,0.00372,-0.98574,0.00176,-0.01428,-0.01891,,,,0,0,0,0,0,0,0
16:59:59.493604,"[88, -61, -70, 79]","[10609, 24359, 26474, 3761]",-0.33,-0.57,-0.58,0.07072,0.00372,-0.98574,0.00176,-0.01428,-0.01891,,,,0,0,0,0,0,0,0
16:59:59.510563,"[88, -61, -70, 79]","[10609, 24359, 26474, 3761]",-0.33,-0.57,-0.58,0.07072,0.00372,-0.98574,0.00176,-0.01428,-0.01891,,,,0,0,0,0,0,0,0
16:59:59.511582,"[57, -76, -71, 52]","[12516, 22565, 24542, 5602]",-0.33,-0.57,-0.58,0.07072,0.00372,-0.98574,0.00176,-0.01428,-0.01891,,,,0,0,0,0,0,0,0
16:59:59.529046,"[57, -76, -71, 52]","[12516, 22565, 24542, 5602]",-0.33,-0.57,-0.58,0.07072,0.00372,-0.98574,0.00176,-0.01428,-0.01891,,,,0,0,0,0,0,0,0
16:59:59.551323,"[57, -76, -71, 52]","[12516, 22565, 24542, 5602]",-0.33,-0.57,-0.58,0.07072,0.00372,-0.98574,0.00176,-0.01428,-0.01891,,,,0,0,0,0,0,0,0
16:59:59.551323,"[57, -76, -71, 52]","[12516, 22565, 24542, 5602]",-0.33,-0.57,-0.58,-0.16318,0.01471,-1.00017,0.01451,-0.03044,-0.00877,,,,0,0,0,0,0,0,0
16:59:59.569709,"[51, -55, -56, 58]","[14100, 20972, 23010, 7225]",-0.33,-0.57,-0.58,-0.16318,0.01471,-1.00017,0.01451,-0.03044,-0.00877,,,,0,0,0,0,0,0,0
16:59:59.569709,"[51, -55, -56, 58]","[14100, 20972, 23010, 7225]",-0.33,-0.57,-0.58,-0.16318,0.01471,-1.00017,0.01451,-0.03044,-0.00877,,,,0,0,0,0,0,0,0
16:59:59.589888,"[51, -55, -56, 58]","[14100, 20972, 23010, 7225]",-0.33,-0.57,-0.58,-0.16318,0.01471,-1.00017,0.01451,-0.03044,-0.00877,,,,0,0,0,0,0,0,0
16:59:59.610899,"[71, -55, -54, 61]","[15730, 19413, 21432, 8716]",-0.33,-0.57,-0.58,-0.16318,0.01471,-1.00017,0.01451,-0.03044,-0.00877,,,,0,0,0,0,0,0,0
16:59:59.610899,"[71, -55, -54, 61]","[15730, 19413, 21432, 8716]",-0.33,-0.57,-0.58,-0.16318,0.01471,-1.00017,0.01451,-0.03044,-0.00877,,,,0,0,0,0,0,0,0
16:59:59.629986,"[71, -55, -54, 61]","[15730, 19413, 21432, 8716]",-0.33,-0.57,-0.58,-0.16318,0.01471,-1.00017,0.01451,-0.03044,-0.00877,,,,0,0,0,0,0,0,0
16:59:59.649402,"[71, -55, -54, 61]","[15730, 19413, 21432, 8716]",-0.33,-0.57,-0.58,0.15218,-0.01337,-1.00461,-0.0078,0.02742,0.02081,,,,0,0,0,0,0,0,0
16:59:59.650403,"[71, -55, -54, 61]","[15730, 19413, 21432, 8716]",-0.33,-0.57,-0.58,0.15218,-0.01337,-1.00461,-0.0078,0.02742,0.02081,,,,0,0,0,0,0,0,0
16:59:59.670537,"[72, -75, -64, 71]","[17543, 17667, 19616, 10496]",-0.33,-0.57,-0.58,0.15218,-0.01337,-1.00461,-0.0078,0.02742,0.02081,,,,0,0,0,0,0,0,0
16:59:59.670537,"[72, -75, -64, 71]","[17543, 17667, 19616, 10496]",-0.33,-0.57,-0.58,0.15218,-0.01337,-1.00461,-0.0078,0.02742,0.02081,,,,0,0,0,0,0,0,0
16:59:59.689548,"[72, -75, -64, 71]","[17543, 17667, 19616, 10496]",-0.33,-0.57,-0.58,0.15218,-0.01337,-1.00461,-0.0078,0.02742,0.02081,,,,0,0,0,0,0,0,0
16:59:59.689548,"[72, -75, -64, 71]","[17543, 17667, 19616, 10496]",-0.4,-0.58,-0.56,0.15218,-0.01337,-1.00461,-0.0078,0.02742,0.02081,,,,0,0,0,0,0,0,0
16:59:59.710639,"[72, -75, -64, 71]","[17543, 17667, 19616, 10496]",-0.4,-0.58,-0.56,0.15218,-0.01337,-1.00461,-0.0078,0.02742,0.02081,,,,0,0,0,0,0,0,0
16:59:59.713120,"[67, -88, -86, 73]","[19656, 15714, 17552, 12592]",-0.4,-0.58,-0.56,0.15218,-0.01337,-1.00461,-0.0078,0.02742,0.02081,,,,0,0,0,0,0,0,0
16:59:59.729645,"[67, -88, -86, 73]","[19656, 15714, 17552, 12592]",-0.4,-0.58,-0.56,0.15218,-0.01337,-1.00461,-0.0078,0.02742,0.02081,,,,0,0,0,0,0,0,0
16:59:59.749654,"[67, -88, -86, 73]","[19656, 15714, 17552, 12592]",-0.4,-0.58,-0.56,0.15218,-0.01337,-1.00461,-0.0078,0.02742,0.02081,,,,0,0,0,0,0,0,0
16:59:59.750652,"[67, -88, -86, 73]","[19656, 15714, 17552, 12592]",-0.4,-0.58,-0.56,-0.04887,-0.00232,-0.99823,0.03193,0.0605,-0.01411,,,,0,0,0,0,0,0,0
16:59:59.769551,"[67, -68, -85, 61]","[21741, 13745, 15403, 14743]",-0.4,-0.58,-0.56,-0.04887,-0.00232,-0.99823,0.03193,0.0605,-0.01411,,,,0,0,0,0,0,0,0
16:59:59.769551,"[67, -68, -85, 61]","[21741, 13745, 15403, 14743]",-0.4,-0.58,-0.56,-0.04887,-0.00232,-0.99823,0.03193,0.0605,-0.01411,,,,0,0,0,0,0,0,0
16:59:59.788550,"[67, -68, -85, 61]","[21741, 13745, 15403, 14743]",-0.4,-0.58,-0.56,-0.04887,-0.00232,-0.99823,0.03193,0.0605,-0.01411,,,,0,0,0,0,0,0,0
16:59:59.809298,"[73, -64, -72, 63]","[23606, 11818, 13564, 16548]",-0.4,-0.58,-0.56,-0.04887,-0.00232,-0.99823,0.03193,0.0605,-0.01411,,,,0,0,0,0,0,0,0
16:59:59.809298,"[73, -64, -72, 63]","[23606, 11818, 13564, 16548]",-0.4,-0.58,-0.56,-0.04887,-0.00232,-0.99823,0.03193,0.0605,-0.01411,,,,0,0,0,0,0,0,0
16:59:59.828817,"[73, -64, -72, 63]","[23606, 11818, 13564, 16548]",-0.4,-0.58,-0.56,-0.04887,-0.00232,-0.99823,0.03193,0.0605,-0.01411,,,,0,0,0,0,0,0,0
16:59:59.849035,"[73, -64, -72, 63]","[23606, 11818, 13564, 16548]",-0.4,-0.58,-0.56,-0.04887,-0.00232,-0.99823,0.03193,0.0605,-0.01411,,,,0,0,0,0,0,0,0
16:59:59.850037,"[73, -64, -72, 63]","[23606, 11818, 13564, 16548]",-0.4,-0.58,-0.56,-0.0603,0.01903,-0.99085,-0.0234,0.06664,0.01332,,,,0,0,0,0,0,0,0
16:59:59.869794,"[60, -55, -68, 66]","[25344, 10057, 11816, 18239]",-0.4,-0.58,-0.56,-0.0603,0.01903,-0.99085,-0.0234,0.06664,0.01332,,,,0,0,0,0,0,0,0
16:59:59.869794,"[60, -55, -68, 66]","[25344, 10057, 11816, 18239]",-0.4,-0.58,-0.56,-0.0603,0.01903,-0.99085,-0.0234,0.06664,0.01332,0.0,0.0,0.0,0,0,0,0,0,0,0
16:59:59.869794,"[60, -55, -68, 66]","[25344, 10057, 11816, 18239]",-0.4,-0.58,-0.56,-0.0603,0.01903,-0.99085,-0.0234,0.06664,0.01332,0.0,0.0,0.0,0,0,0,0,0,0,0
16:59:59.891310,"[60, -55, -68, 66]","[25344, 10057, 11816, 18239]",-0.4,-0.58,-0.56,-0.0603,0.01903,-0.99085,-0.0234,0.06664,0.01332,0.0,0.0,0.0,0,0,0,0,0,0,0
16:59:59.891310,"[60, -55, -68, 66]","[25344, 10057, 11816, 18239]",-0.5,-0.57,-0.61,-0.0603,0.01903,-0.99085,-0.0234,0.06664,0.01332,0.0,0.0,0.0,0,0,0,0,0,0,0
16:59:59.911350,"[86, -74, -71, 80]","[27202, 8202, 9913, 20091]",-0.5,-0.57,-0.61,-0.0603,0.01903,-0.99085,-0.0234,0.06664,0.01332,0.0,0.0,0.0,0,0,0,0,0,0,0
16:59:59.911350,"[86, -74, -71, 80]","[27202, 8202, 9913, 20091]",-0.5,-0.57,-0.61,-0.0603,0.01903,-0.99085,-0.0234,0.06664,0.01332,0.0,0.0,0.0,0,0,0,0,0,0,0
16:59:59.928816,"[86, -74, -71, 80]","[27202, 8202, 9913, 20091]",-0.5,-0.57,-0.61,-0.0603,0.01903,-0.99085,-0.0234,0.06664,0.01332,0.0,0.0,0.0,0,0,0,0,0,0,0
16:59:59.970022,"[86, -74, -71, 80]","[27202, 8202, 9913, 20091]",-0.5,-0.57,-0.61,-0.0603,0.01903,-0.99085,-0.0234,0.06664,0.01332,0.0,0.0,0.0,0,0,0,0,0,0,0
16:59:59.973015,"[71, -84, -66, 84]","[29328, 6097, 7797, 22299]",-0.5,-0.57,-0.61,-0.0603,0.01903,-0.99085,-0.0234,0.06664,0.01332,0.0,0.0,0.0,0,0,0,0,0,0,0
16:59:59.973015,"[71, -84, -66, 84]","[29328, 6097, 7797, 22299]",-0.5,-0.57,-0.61,0.11081,-0.02485,-1.03296,-0.03193,0.01677,0.05273,0.0,0.0,0.0,0,0,0,0,0,0,0
16:59:59.994015,"[71, -84, -66, 84]","[29328, 6097, 7797, 22299]",-0.5,-0.57,-0.61,0.11081,-0.02485,-1.03296,-0.03193,0.01677,0.05273,0.0,0.0,0.0,0,0,0,0,0,0,0
17:00:00.009409,"[71, -84, -66, 84]","[29328, 6097, 7797, 22299]",-0.5,-0.57,-0.61,0.11081,-0.02485,-1.03296,-0.03193,0.01677,0.05273,0.0,0.0,0.0,0,0,0,0,0,0,0
17:00:00.029405,"[65, -84, -73, 84]","[31507, 3907, 5552, 24522]",-0.5,-0.57,-0.61,0.11081,-0.02485,-1.03296,-0.03193,0.01677,0.05273,0.0,0.0,0.0,0,0,0,0,0,0,0
17:00:00.029405,"[65, -84, -73, 84]","[31507, 3907, 5552, 24522]",-0.5,-0.57,-0.61,0.11081,-0.02485,-1.03296,-0.03193,0.01677,0.05273,0.0,0.0,0.0,0,0,0,0,0,0,0
17:00:00.050135,"[65, -84, -73, 84]","[31507, 3907, 5552, 24522]",-0.5,-0.57,-0.61,0.11081,-0.02485,-1.03296,-0.03193,0.01677,0.05273,0.0,0.0,0.0,0,0,0,0,0,0,0
17:00:00.070352,"[56, -70, -71, 60]","[868, 1904, 3522, 26550]",-0.5,-0.57,-0.61,-0.11081,0.04139,-0.98335,-0.01291,0.04247,-0.00991,0.0,0.0,0.0,0,0,0,0,0,0,0
17:00:00.070352,"[56, -70, -71, 60]","[868, 1904, 3522, 26550]",-0.5,-0.57,-0.61,-0.11081,0.04139,-0.98335,-0.01291,0.04247,-0.00991,0.0,0.0,0.0,0,0,0,0,0,0,0
17:00:00.071115,"[56, -70, -71, 60]","[868, 1904, 3522, 26550]",-0.5,-0.57,-0.61,-0.11081,0.04139,-0.98335,-0.01291,0.04247,-0.00991,0.0,0.0,0.0,0,0,0,0,0,0,0
17:00:00.088755,"[56, -70, -71, 60]","[868, 1904, 3522, 26550]",-0.5,-0.57,-0.61,-0.11081,0.04139,-0.98335,-0.01291,0.04247,-0.00991,0.0,0.0,0.0,0,0,0,0,0,0,0
17:00:00.109362,"[56, -70, -71, 60]","[868, 1904, 3522, 26550]",-0.5,-0.57,-0.61,-0.11081,0.04139,-0.98335,-0.01291,0.04247,-0.00991,0.0,0.0,0.0,0,0,0,0,0,0,0
17:00:00.109362,"[56, -70, -71, 60]","[868, 1904, 3522, 26550]",-0.44,-0.41,-0.59,-0.11081,0.04139,-0.98335,-0.01291,0.04247,-0.00991,0.0,0.0,0.0,0,0,0,0,0,0,0
17:00:00.132616,"[78, -70, -72, 69]","[2707, 32719, 1672, 28461]",-0.44,-0.41,-0.59,-0.11081,0.04139,-0.98335,-0.01291,0.04247,-0.00991,0.0,0.0,0.0,0,0,0,0,0,0,0
17:00:00.132616,"[78, -70, -72, 69]","[2707, 32719, 1672, 28461]",-0.44,-0.41,-0.59,-0.11081,0.04139,-0.98335,-0.01291,0.04247,-0.00991,0.0,0.0,0.0,0,0,0,0,0,0,0
17:00:00.163048,"[78, -70, -72, 69]","[2707, 32719, 1672, 28461]",-0.44,-0.41,-0.59,-0.11081,0.04139,-0.98335,-0.01291,0.04247,-0.00991,0.0,0.0,0.0,0,0,0,0,0,0,0
17:00:00.172065,"[69, -80, -64, 65]","[4612, 30889, 32439, 30314]",-0.44,-0.41,-0.59,-0.11081,0.04139,-0.98335,-0.01291,0.04247,-0.00991,0.0,0.0,0.0,0,0,0,0,0,0,0
17:00:00.172065,"[69, -80, -64, 65]","[4612, 30889, 32439, 30314]",-0.44,-0.41,-0.59,0.04883,0.01168,-1.015,0.03264,0.00622,-0.0036,0.0,0.0,0.0,0,0,0,0,0,0,0
17:00:00.172065,"[69, -80, -64, 65]","[4612, 30889, 32439, 30314]",-0.44,-0.41,-0.59,0.04883,0.01168,-1.015,0.03264,0.00622,-0.0036,0.0,0.0,0.0,0,0,0,0,0,0,0
17:00:00.188398,"[69, -80, -64, 65]","[4612, 30889, 32439, 30314]",-0.44,-0.41,-0.59,0.04883,0.01168,-1.015,0.03264,0.00622,-0.0036,0.0,0.0,0.0,0,0,0,0,0,0,0
17:00:00.209160,"[69, -80, -64, 65]","[4612, 30889, 32439, 30314]",-0.44,-0.41,-0.59,0.04883,0.01168,-1.015,0.03264,0.00622,-0.0036,0.0,0.0,0.0,0,0,0,0,0,0,0
17:00:00.228670,"[74, -82, -84, 72]","[6767, 28809, 30360, 32456]",-0.44,-0.41,-0.59,0.04883,0.01168,-1.015,0.03264,0.00622,-0.0036,0.0,0.0,0.0,0,0,0,0,0,0,0
17:00:00.228670,"[74, -82, -84, 72]","[6767, 28809, 30360, 32456]",-0.44,-0.41,-0.59,0.04883,0.01168,-1.015,0.03264,0.00622,-0.0036,0.0,0.0,0.0,0,0,0,0,0,0,0
17:00:00.248638,"[74, -82, -84, 72]","[6767, 28809, 30360, 32456]",-0.44,-0.41,-0.59,0.04883,0.01168,-1.015,0.03264,0.00622,-0.0036,0.0,0.0,0.0,0,0,0,0,0,0,0
17:00:00.271978,"[66, -72, -89, 71]","[9109, 26548, 28097, 1978]",-0.44,-0.41,-0.59,0.04879,-0.00486,-0.91605,-0.03346,0.14786,0.04762,0.0,0.0,0.0,0,0,0,0,0,0,0
17:00:00.271978,"[66, -72, -89, 71]","[9109, 26548, 28097, 1978]",-0.44,-0.41,-0.59,0.04879,-0.00486,-0.91605,-0.03346,0.14786,0.04762,0.0,0.0,0.0,0,0,0,0,0,0,0
17:00:00.271978,"[66, -72, -89, 71]","[9109, 26548, 28097, 1978]",-0.44,-0.41,-0.59,0.04879,-0.00486,-0.91605,-0.03346,0.14786,0.04762,0.0,0.0,0.0,0,0,0,0,0,0,0
17:00:00.289979,"[66, -72, -89, 71]","[9109, 26548, 28097, 1978]",-0.44,-0.41,-0.59,0.04879,-0.00486,-0.91605,-0.03346,0.14786,0.04762,0.0,0.0,0.0,0,0,0,0,0,0,0
17:00:00.303999,"[66, -72, -89, 71]","[9109, 26548, 28097, 1978]",-0.44,-0.41,-0.59,0.04879,-0.00486,-0.91605,-0.03346,0.14786,0.04762,0.0,0.0,0.0,0,0,0,0,0,0,0
17:00:00.305516,"[66, -72, -89, 71]","[9109, 26548, 28097, 1978]",-0.45,-0.11,-0.58,0.04879,-0.00486,-0.91605,-0.03346,0.14786,0.04762,0.0,0.0,0.0,0,0,0,0,0,0,0
17:00:00.329886,"[88, -65, -75, 72]","[11176, 24387, 25973, 4232]",-0.45,-0.11,-0.58,0.04879,-0.00486,-0.91605,-0.03346,0.14786,0.04762,0.0,0.0,0.0,0,0,0,0,0,0,0
17:00:00.329886,"[88, -65, -75, 72]","[11176, 24387, 25973, 4232]",-0.45,-0.11,-0.58,0.04879,-0.00486,-0.91605,-0.03346,0.14786,0.04762,0.0,0.0,0.0,0,0,0,0,0,0,0
17:00:00.348913,"[88, -65, -75, 72]","[11176, 24387, 25973, 4232]",-0.45,-0.11,-0.58,0.04879,-0.00486,-0.91605,-0.03346,0.14786,0.04762,0.0,0.0,0.0,0,0,0,0,0,0,0
17:00:00.374133,"[88, -65, -75, 72]","[11176, 24387, 25973, 4232]",-0.45,-0.11,-0.58,0.04879,-0.00486,-0.91605,-0.03346,0.14786,0.04762,0.0,0.0,0.0,0,0,0,0,0,0,0
17:00:00.374133,"[88, -65, -75, 72]","[11176, 24387, 25973, 4232]",-0.45,-0.11,-0.58,-0.10302,0.00954,-1.0063,-0.00718,0.02484,0.00497,0.0,0.0,0.0,0,0,0,0,0,0,0
17:00:00.393485,"[77, -73, -64, 77]","[13022, 22283, 23984, 6084]",-0.45,-0.11,-0.58,-0.10302,0.00954,-1.0063,-0.00718,0.02484,0.00497,0.0,0.0,0.0,0,0,0,0,0,0,0
17:00:00.393485,"[77, -73, -64, 77]","[13022, 22283, 23984, 6084]",-0.45,-0.11,-0.58,-0.10302,0.00954,-1.0063,-0.00718,0.02484,0.00497,0.0,0.0,0.0,0,0,0,0,0,0,0
17:00:00.409753,"[77, -73, -64, 77]","[13022, 22283, 23984, 6084]",-0.45,-0.11,-0.58,-0.10302,0.00954,-1.0063,-0.00718,0.02484,0.00497,0.0,0.0,0.0,0,0,0,0,0,0,0
17:00:00.428750,"[56, -70, -65, 52]","[14774, 20557, 22196, 7905]",-0.45,-0.11,-0.58,-0.10302,0.00954,-1.0063,-0.00718,0.02484,0.00497,0.0,0.0,0.0,0,0,0,0,0,0,0
17:00:00.429759,"[56, -70, -65, 52]","[14774, 20557, 22196, 7905]",-0.45,-0.11,-0.58,-0.10302,0.00954,-1.0063,-0.00718,0.02484,0.00497,0.0,0.0,0.0,0,0,0,0,0,0,0
17:00:00.449308,"[56, -70, -65, 52]","[14774, 20557, 22196, 7905]",-0.45,-0.11,-0.58,-0.10302,0.00954,-1.0063,-0.00718,0.02484,0.00497,0.0,0.0,0.0,0,0,0,0,0,0,0
17:00:00.470033,"[56, -70, -65, 52]","[14774, 20557, 22196, 7905]",-0.45,-0.11,-0.58,-0.10302,0.00954,-1.0063,-0.00718,0.02484,0.00497,0.0,0.0,0.0,0,0,0,0,0,0,0
17:00:00.470033,"[56, -70, -65, 52]","[14774, 20557, 22196, 7905]",-0.45,-0.11,-0.58,-0.06364,0.01203,-0.98788,0.01668,-0.00162,-0.00466,0.0,0.0,0.0,0,0,0,0,0,0,0
17:00:00.488784,"[50, -54, -52, 54]","[16350, 18931, 20713, 9502]",-0.45,-0.11,-0.58,-0.06364,0.01203,-0.98788,0.01668,-0.00162,-0.00466,0.0,0.0,0.0,0,0,0,0,0,0,0
17:00:00.488784,"[50, -54, -52, 54]","[16350, 18931, 20713, 9502]",-0.45,-0.11,-0.58,-0.06364,0.01203,-0.98788,0.01668,-0.00162,-0.00466,0.0,0.0,0.0,0,0,0,0,0,0,0
17:00:00.511870,"[50, -54, -52, 54]","[16350, 18931, 20713, 9502]",-0.45,-0.11,-0.58,-0.06364,0.01203,-0.98788,0.01668,-0.00162,-0.00466,0.0,0.0,0.0,0,0,0,0,0,0,0
17:00:00.512872,"[50, -54, -52, 54]","[16350, 18931, 20713, 9502]",-0.45,-0.31,-0.59,-0.06364,0.01203,-0.98788,0.01668,-0.00162,-0.00466,0.0,0.0,0.0,0,0,0,0,0,0,0
17:00:00.529681,"[50, -54, -52, 54]","[16350, 18931, 20713, 9502]",-0.45,-0.31,-0.59,-0.06364,0.01203,-0.98788,0.01668,-0.00162,-0.00466,0.0,0.0,0.0,0,0,0,0,0,0,0
17:00:00.530694,"[56, -47, -61, 52]","[17880, 17375, 19131, 11089]",-0.45,-0.31,-0.59,-0.06364,0.01203,-0.98788,0.01668,-0.00162,-0.00466,0.0,0.0,0.0,0,0,0,0,0,0,0
17:00:00.549997,"[56, -47, -61, 52]","[17880, 17375, 19131, 11089]",-0.45,-0.31,-0.59,-0.06364,0.01203,-0.98788,0.01668,-0.00162,-0.00466,0.0,0.0,0.0,0,0,0,0,0,0,0
17:00:00.570077,"[56, -47, -61, 52]","[17880, 17375, 19131, 11089]",-0.45,-0.31,-0.59,-0.06364,0.01203,-0.98788,0.01668,-0.00162,-0.00466,0.0,0.0,0.0,0,0,0,0,0,0,0
17:00:00.570077,"[56, -47, -61, 52]","[17880, 17375, 19131, 11089]",-0.45,-0.31,-0.59,-0.04461,0.02922,-1.00641,-0.00193,-0.00035,-0.02779,0.0,0.0,0.0,0,0,0,0,0,0,0
17:00:00.592106,"[43, -44, -56, 48]","[19281, 16053, 17658, 12498]",-0.45,-0.31,-0.59,-0.04461,0.02922,-1.00641,-0.00193,-0.00035,-0.02779,0.0,0.0,0.0,0,0,0,0,0,0,0
17:00:00.593120,"[43, -44, -56, 48]","[19281, 16053, 17658, 12498]",-0.45,-0.31,-0.59,-0.04461,0.02922,-1.00641,-0.00193,-0.00035,-0.02779,0.0,0.0,0.0,0,0,0,0,0,0,0
17:00:00.609759,"[43, -44, -56, 48]","[19281, 16053, 17658, 12498]",-0.45,-0.31,-0.59,-0.04461,0.02922,-1.00641,-0.00193,-0.00035,-0.02779,0.0,0.0,0.0,0,0,0,0,0,0,0
17:00:00.628599,"[45, -37, -34, 40]","[20445, 14723, 16481, 13816]",-0.45,-0.31,-0.59,-0.04461,0.02922,-1.00641,-0.00193,-0.00035,-0.02779,0.0,0.0,0.0,0,0,0,0,0,0,0
17:00:00.629132,"[45, -37, -34, 40]","[20445, 14723, 16481, 13816]",-0.45,-0.31,-0.59,-0.04461,0.02922,-1.00641,-0.00193,-0.00035,-0.02779,0.0,0.0,0.0,0,0,0,0,0,0,0
17:00:00.649393,"[45, -37, -34, 40]","[20445, 14723, 16481, 13816]",-0.45,-0.31,-0.59,-0.04461,0.02922,-1.00641,-0.00193,-0.00035,-0.02779,0.0,0.0,0.0,0,0,0,0,0,0,0
17:00:00.669061,"[45, -37, -34, 40]","[20445, 14723, 16481, 13816]",-0.45,-0.31,-0.59,-0.04461,0.02922,-1.00641,-0.00193,-0.00035,-0.02779,0.0,0.0,0.0,0,0,0,0,0,0,0
17:00:00.670073,"[45, -37, -34, 40]","[20445, 14723, 16481, 13816]",-0.45,-0.31,-0.59,-0.07244,0.01563,-1.00565,0.02345,0.00195,-0.01757,0.0,0.0,0.0,0,0,0,0,0,0,0
17:00:00.689400,"[35, -27, -44, 36]","[21512, 13729, 15415, 14822]",-0.45,-0.31,-0.59,-0.07244,0.01563,-1.00565,0.02345,0.00195,-0.01757,0.0,0.0,0.0,0,0,0,0,0,0,0
17:00:00.689400,"[35, -27, -44, 36]","[21512, 13729, 15415, 14822]",-0.45,-0.31,-0.59,-0.07244,0.01563,-1.00565,0.02345,0.00195,-0.01757,0.0,0.0,0.0,0,0,0,0,0,0,0
17:00:00.711140,"[35, -27, -44, 36]","[21512, 13729, 15415, 14822]",-0.45,-0.31,-0.59,-0.07244,0.01563,-1.00565,0.02345,0.00195,-0.01757,0.0,0.0,0.0,0,0,0,0,0,0,0
17:00:00.711140,"[35, -27, -44, 36]","[21512, 13729, 15415, 14822]",-0.48,-0.36,-0.56,-0.07244,0.01563,-1.00565,0.02345,0.00195,-0.01757,0.0,0.0,0.0,0,0,0,0,0,0,0
17:00:00.732113,"[28, -33, -30, 34]","[22372, 12748, 14518, 15751]",-0.48,-0.36,-0.56,-0.07244,0.01563,-1.00565,0.02345,0.00195,-0.01757,0.0,0.0,0.0,0,0,0,0,0,0,0
17:00:00.733113,"[28, -33, -30, 34]","[22372, 12748, 14518, 15751]",-0.48,-0.36,-0.56,-0.07244,0.01563,-1.00565,0.02345,0.00195,-0.01757,0.0,0.0,0.0,0,0,0,0,0,0,0
17:00:00.749157,"[28, -33, -30, 34]","[22372, 12748, 14518, 15751]",-0.48,-0.36,-0.56,-0.07244,0.01563,-1.00565,0.02345,0.00195,-0.01757,0.0,0.0,0.0,0,0,0,0,0,0,0
17:00:00.783682,"[28, -33, -30, 34]","[22372, 12748, 14518, 15751]",-0.48,-0.36,-0.56,-0.07244,0.01563,-1.00565,0.02345,0.00195,-0.01757,0.0,0.0,0.0,0,0,0,0,0,0,0
17:00:00.783682,"[28, -33, -30, 34]","[22372, 12748, 14518, 15751]",-0.48,-0.36,-0.56,-0.0433,0.02367,-0.98976,-0.00883,0.00656,0.00319,0.0,0.0,0.0,0,0,0,0,0,0,0
17:00:00.789524,"[24, -24, -30, 27]","[23150, 12009, 13773, 16496]",-0.48,-0.36,-0.56,-0.0433,0.02367,-0.98976,-0.00883,0.00656,0.00319,0.0,0.0,0.0,0,0,0,0,0,0,0
17:00:00.789524,"[24, -24, -30, 27]","[23150, 12009, 13773, 16496]",-0.48,-0.36,-0.56,-0.0433,0.02367,-0.98976,-0.00883,0.00656,0.00319,0.0,0.0,0.0,0,0,0,0,0,0,0
17:00:00.811023,"[24, -24, -30, 27]","[23150, 12009, 13773, 16496]",-0.48,-0.36,-0.56,-0.0433,0.02367,-0.98976,-0.00883,0.00656,0.00319,0.0,0.0,0.0,0,0,0,0,0,0,0
17:00:00.829787,"[-83, -28, -25, -75]","[22696, 11348, 13037, 16256]",-0.48,-0.36,-0.56,-0.0433,0.02367,-0.98976,-0.00883,0.00656,0.00319,0.0,0.0,0.0,0,0,0,0,0,0,0
17:00:00.829787,"[-83, -28, -25, -75]","[22696, 11348, 13037, 16256]",-0.48,-0.36,-0.56,-0.0433,0.02367,-0.98976,-0.00883,0.00656,0.00319,0.0,0.0,0.0,0,0,0,0,0,0,0
17:00:00.849904,"[-83, -28, -25, -75]","[22696, 11348, 13037, 16256]",-0.48,-0.36,-0.56,-0.0433,0.02367,-0.98976,-0.00883,0.00656,0.00319,0.0,0.0,0.0,0,0,0,0,0,0,0
17:00:00.869162,"[-83, -28, -25, -75]","[22696, 11348, 13037, 16256]",-0.48,-0.36,-0.56,-0.0433,0.02367,-0.98976,-0.00883,0.00656,0.00319,0.0,0.0,0.0,0,0,0,0,0,0,0
17:00:00.869162,"[-83, -28, -25, -75]","[22696, 11348, 13037, 16256]",-0.48,-0.36,-0.56,-0.2341,-0.0838,-1.04605,-0.00413,-0.02696,0.80478,0.0,0.0,0.0,0,0,0,0,0,0,0
17:00:00.890577,"[-18, -31, -17, -20]","[21415, 10348, 12260, 14732]",-0.48,-0.36,-0.56,-0.2341,-0.0838,-1.04605,-0.00413,-0.02696,0.80478,0.0,0.0,0.0,0,0,0,0,0,0,0
17:00:00.890577,"[-18, -31, -17, -20]","[21415, 10348, 12260, 14732]",-0.48,-0.36,-0.56,-0.2341,-0.0838,-1.04605,-0.00413,-0.02696,0.80478,0.0,0.0,0.0,0,0,0,0,0,0,0
17:00:00.890577,"[-18, -31, -17, -20]","[21415, 10348, 12260, 14732]",-0.48,-0.36,-0.56,-0.2341,-0.0838,-1.04605,-0.00413,-0.02696,0.80478,0.29617,-0.00275,0.0,0,0,0,0,0,0,0
17:00:00.909933,"[-18, -31, -17, -20]","[21415, 10348, 12260, 14732]",3.58,-0.39,-0.5,-0.2341,-0.0838,-1.04605,-0.00413,-0.02696,0.80478,0.29617,-0.00275,0.0,0,0,0,0,0,0,0
17:00:00.910873,"[-18, -31, -17, -20]","[21415, 10348, 12260, 14732]",3.58,-0.39,-0.5,-0.2341,-0.0838,-1.04605,-0.00413,-0.02696,0.80478,0.29617,-0.00275,0.0,0,0,0,0,0,0,0
17:00:00.932419,"[-42, -14, -18, -32]","[20576, 9829, 11728, 13973]",3.58,-0.39,-0.5,-0.2341,-0.0838,-1.04605,-0.00413,-0.02696,0.80478,0.29617,-0.00275,0.0,0,0,0,0,0,0,0
17:00:00.933830,"[-42, -14, -18, -32]","[20576, 9829, 11728, 13973]",3.58,-0.39,-0.5,-0.2341,-0.0838,-1.04605,-0.00413,-0.02696,0.80478,0.29617,-0.00275,0.0,0,0,0,0,0,0,0
17:00:00.949434,"[-42, -14, -18, -32]","[20576, 9829, 11728, 13973]",3.58,-0.39,-0.5,-0.2341,-0.0838,-1.04605,-0.00413,-0.02696,0.80478,0.29617,-0.00275,0.0,0,0,0,0,0,0,0
17:00:00.970796,"[-42, -14, -18, -32]","[20576, 9829, 11728, 13973]",3.58,-0.39,-0.5,-0.2341,-0.0838,-1.04605,-0.00413,-0.02696,0.80478,0.29617,-0.00275,0.0,0,0,0,0,0,0,0
17:00:00.970796,"[-42, -14, -18, -32]","[20576, 9829, 11728, 13973]",3.58,-0.39,-0.5,-0.06439,0.01734,-0.98848,0.00679,0.01252,0.73651,0.29617,-0.00275,0.0,0,0,0,0,0,0,0
17:00:00.989436,"[-41, -17, -16, -45]","[19472, 9437, 11292, 12682]",3.58,-0.39,-0.5,-0.06439,0.01734,-0.98848,0.00679,0.01252,0.73651,0.29617,-0.00275,0.0,0,0,0,0,0,0,0
17:00:00.989436,"[-41, -17, -16, -45]","[19472, 9437, 11292, 12682]",3.58,-0.39,-0.5,-0.06439,0.01734,-0.98848,0.00679,0.01252,0.73651,0.29617,-0.00275,0.0,0,0,0,0,0,0,0
17:00:01.011802,"[-41, -17, -16, -45]","[19472, 9437, 11292, 12682]",3.58,-0.39,-0.5,-0.06439,0.01734,-0.98848,0.00679,0.01252,0.73651,0.29617,-0.00275,0.0,0,0,0,0,0,0,0
17:00:01.028804,"[-41, -13, -17, -38]","[18332, 9099, 10877, 11536]",3.58,-0.39,-0.5,-0.06439,0.01734,-0.98848,0.00679,0.01252,0.73651,0.29617,-0.00275,0.0,0,0,0,0,0,0,0
17:00:01.030153,"[-41, -13, -17, -38]","[18332, 9099, 10877, 11536]",3.58,-0.39,-0.5,-0.06439,0.01734,-0.98848,0.00679,0.01252,0.73651,0.29617,-0.00275,0.0,0,0,0,0,0,0,0
17:00:01.050246,"[-41, -13, -17, -38]","[18332, 9099, 10877, 11536]",3.58,-0.39,-0.5,-0.06439,0.01734,-0.98848,0.00679,0.01252,0.73651,0.29617,-0.00275,0.0,0,0,0,0,0,0,0
17:00:01.070839,"[-41, -13, -17, -38]","[18332, 9099, 10877, 11536]",3.58,-0.39,-0.5,0.06387,0.03206,-1.00026,0.01725,-0.00558,0.69828,0.29617,-0.00275,0.0,0,0,0,0,0,0,0
17:00:01.070839,"[-41, -13, -17, -38]","[18332, 9099, 10877, 11536]",3.58,-0.39,-0.5,0.06387,0.03206,-1.00026,0.01725,-0.00558,0.69828,0.29617,-0.00275,0.0,0,0,0,0,0,0,0
17:00:01.090856,"[-30, -22, -17, -33]","[17273, 8610, 10424, 10572]",3.58,-0.39,-0.5,0.06387,0.03206,-1.00026,0.01725,-0.00558,0.69828,0.29617,-0.00275,0.0,0,0,0,0,0,0,0
17:00:01.090856,"[-30, -22, -17, -33]","[17273, 8610, 10424, 10572]",3.58,-0.39,-0.5,0.06387,0.03206,-1.00026,0.01725,-0.00558,0.69828,0.29617,-0.00275,0.0,0,0,0,0,0,0,0
17:00:01.111722,"[-30, -22, -17, -33]","[17273, 8610, 10424, 10572]",11.98,-0.31,-0.55,0.06387,0.03206,-1.00026,0.01725,-0.00558,0.69828,0.29617,-0.00275,0.0,0,0,0,0,0,0,0
17:00:01.111722,"[-30, -22, -17, -33]","[17273, 8610, 10424, 10572]",11.98,-0.31,-0.55,0.06387,0.03206,-1.00026,0.01725,-0.00558,0.69828,0.29617,-0.00275,0.0,0,0,0,0,0,0,0
17:00:01.130738,"[-28, -23, -21, -31]","[16361, 7885, 9850, 9763]",11.98,-0.31,-0.55,0.06387,0.03206,-1.00026,0.01725,-0.00558,0.69828,0.29617,-0.00275,0.0,0,0,0,0,0,0,0
17:00:01.131734,"[-28, -23, -21, -31]","[16361, 7885, 9850, 9763]",11.98,-0.31,-0.55,0.06387,0.03206,-1.00026,0.01725,-0.00558,0.69828,0.29617,-0.00275,0.0,0,0,0,0,0,0,0
17:00:01.148752,"[-28, -23, -21, -31]","[16361, 7885, 9850, 9763]",11.98,-0.31,-0.55,0.06387,0.03206,-1.00026,0.01725,-0.00558,0.69828,0.29617,-0.00275,0.0,0,0,0,0,0,0,0
17:00:01.171188,"[-28, -23, -21, -31]","[16361, 7885, 9850, 9763]",11.98,-0.31,-0.55,0.08396,-0.00156,-0.99839,0.00375,0.00159,0.75832,0.29617,-0.00275,0.0,0,0,0,0,0,0,0
17:00:01.171188,"[-28, -23, -21, -31]","[16361, 7885, 9850, 9763]",11.98,-0.31,-0.55,0.08396,-0.00156,-0.99839,0.00375,0.00159,0.75832,0.29617,-0.00275,0.0,0,0,0,0,0,0,0
17:00:01.192375,"[-31, -36, -33, -22]","[15638, 6912, 8998, 9112]",11.98,-0.31,-0.55,0.08396,-0.00156,-0.99839,0.00375,0.00159,0.75832,0.29617,-0.00275,0.0,0,0,0,0,0,0,0
17:00:01.193381,"[-31, -36, -33, -22]","[15638, 6912, 8998, 9112]",11.98,-0.31,-0.55,0.08396,-0.00156,-0.99839,0.00375,0.00159,0.75832,0.29617,-0.00275,0.0,0,0,0,0,0,0,0
17:00:01.209664,"[-31, -36, -33, -22]","[15638, 6912, 8998, 9112]",11.98,-0.31,-0.55,0.08396,-0.00156,-0.99839,0.00375,0.00159,0.75832,0.29617,-0.00275,0.0,0,0,0,0,0,0,0
17:00:01.229586,"[-14, -41, -32, -23]","[15109, 5821, 7905, 8596]",11.98,-0.31,-0.55,0.08396,-0.00156,-0.99839,0.00375,0.00159,0.75832,0.29617,-0.00275,0.0,0,0,0,0,0,0,0
17:00:01.229586,"[-14, -41, -32, -23]","[15109, 5821, 7905, 8596]",11.98,-0.31,-0.55,0.08396,-0.00156,-0.99839,0.00375,0.00159,0.75832,0.29617,-0.00275,0.0,0,0,0,0,0,0,0
17:00:01.249653,"[-14, -41, -32, -23]","[15109, 5821, 7905, 8596]",11.98,-0.31,-0.55,0.08396,-0.00156,-0.99839,0.00375,0.00159,0.75832,0.29617,-0.00275,0.0,0,0,0,0,0,0,0
17:00:01.269468,"[-14, -41, -32, -23]","[15109, 5821, 7905, 8596]",11.98,-0.31,-0.55,0.08396,-0.00156,-0.99839,0.00375,0.00159,0.75832,0.29617,-0.00275,0.0,0,0,0,0,0,0,0
17:00:01.269468,"[-14, -41, -32, -23]","[15109, 5821, 7905, 8596]",11.98,-0.31,-0.55,-0.02843,-0.01379,-0.98686,0.0115,-0.0026,0.78602,0.29617,-0.00275,0.0,0,0,0,0,0,0,0
17:00:01.291595,"[-20, -46, -39, -15]","[14667, 4842, 6837, 8067]",11.98,-0.31,-0.55,-0.02843,-0.01379,-0.98686,0.0115,-0.0026,0.78602,0.29617,-0.00275,0.0,0,0,0,0,0,0,0
17:00:01.291595,"[-20, -46, -39, -15]","[14667, 4842, 6837, 8067]",11.98,-0.31,-0.55,-0.02843,-0.01379,-0.98686,0.0115,-0.0026,0.78602,0.29617,-0.00275,0.0,0,0,0,0,0,0,0
17:00:01.310299,"[-20, -46, -39, -15]","[14667, 4842, 6837, 8067]",20.8,-0.38,-0.54,-0.02843,-0.01379,-0.98686,0.0115,-0.0026,0.78602,0.29617,-0.00275,0.0,0,0,0,0,0,0,0
17:00:01.310299,"[-20, -46, -39, -15]","[14667, 4842, 6837, 8067]",20.8,-0.38,-0.54,-0.02843,-0.01379,-0.98686,0.0115,-0.0026,0.78602,0.29617,-0.00275,0.0,0,0,0,0,0,0,0
17:00:01.331201,"[-26, -29, -40, -28]","[14055, 3804, 5762, 7405]",20.8,-0.38,-0.54,-0.02843,-0.01379,-0.98686,0.0115,-0.0026,0.78602,0.29617,-0.00275,0.0,0,0,0,0,0,0,0
17:00:01.332331,"[-26, -29, -40, -28]","[14055, 3804, 5762, 7405]",20.8,-0.38,-0.54,-0.02843,-0.01379,-0.98686,0.0115,-0.0026,0.78602,0.29617,-0.00275,0.0,0,0,0,0,0,0,0
17:00:01.353636,"[-26, -29, -40, -28]","[14055, 3804, 5762, 7405]",20.8,-0.38,-0.54,-0.02843,-0.01379,-0.98686,0.0115,-0.0026,0.78602,0.29617,-0.00275,0.0,0,0,0,0,0,0,0
17:00:01.370974,"[-26, -29, -40, -28]","[14055, 3804, 5762, 7405]",20.8,-0.38,-0.54,-0.02843,-0.01379,-0.98686,0.0115,-0.0026,0.78602,0.29617,-0.00275,0.0,0,0,0,0,0,0,0
17:00:01.370974,"[-26, -29, -40, -28]","[14055, 3804, 5762, 7405]",20.8,-0.38,-0.54,-0.06292,0.02481,-0.9999,0.01596,-0.00274,0.76082,0.29617,-0.00275,0.0,0,0,0,0,0,0,0
17:00:01.391128,"[-39, -27, -34, -40]","[13269, 3110, 4880, 6497]",20.8,-0.38,-0.54,-0.06292,0.02481,-0.9999,0.01596,-0.00274,0.76082,0.29617,-0.00275,0.0,0,0,0,0,0,0,0
17:00:01.391128,"[-39, -27, -34, -40]","[13269, 3110, 4880, 6497]",20.8,-0.38,-0.54,-0.06292,0.02481,-0.9999,0.01596,-0.00274,0.76082,0.29617,-0.00275,0.0,0,0,0,0,0,0,0
17:00:01.411617,"[-39, -27, -34, -40]","[13269, 3110, 4880, 6497]",20.8,-0.38,-0.54,-0.06292,0.02481,-0.9999,0.01596,-0.00274,0.76082,0.29617,-0.00275,0.0,0,0,0,0,0,0,0
17:00:01.432252,"[-29, -23, -23, -27]","[12392, 2402, 4208, 5593]",20.8,-0.38,-0.54,-0.06292,0.02481,-0.9999,0.01596,-0.00274,0.76082,0.29617,-0.00275,0.0,0,0,0,0,0,0,0
17:00:01.432252,"[-29, -23, -23, -27]","[12392, 2402, 4208, 5593]",20.8,-0.38,-0.54,-0.06292,0.02481,-0.9999,0.01596,-0.00274,0.76082,0.29617,-0.00275,0.0,0,0,0,0,0,0,0
17:00:01.450015,"[-29, -23, -23, -27]","[12392, 2402, 4208, 5593]",20.8,-0.38,-0.54,-0.06292,0.02481,-0.9999,0.01596,-0.00274,0.76082,0.29617,-0.00275,0.0,0,0,0,0,0,0,0
17:00:01.471020,"[-29, -23, -23, -27]","[12392, 2402, 4208, 5593]",20.8,-0.38,-0.54,-0.01781,0.00725,-0.98355,0.00714,0.01251,0.79505,0.29617,-0.00275,0.0,0,0,0,0,0,0,0
17:00:01.471020,"[-29, -23, -23, -27]","[12392, 2402, 4208, 5593]",20.8,-0.38,-0.54,-0.01781,0.00725,-0.98355,0.00714,0.01251,0.79505,0.29617,-0.00275,0.0,0,0,0,0,0,0,0
17:00:01.493070,"[-39, -28, -23, -39]","[11452, 1750, 3526, 4605]",20.8,-0.38,-0.54,-0.01781,0.00725,-0.98355,0.00714,0.01251,0.79505,0.29617,-0.00275,0.0,0,0,0,0,0,0,0
17:00:01.494059,"[-39, -28, -23, -39]","[11452, 1750, 3526, 4605]",20.8,-0.38,-0.54,-0.01781,0.00725,-0.98355,0.00714,0.01251,0.79505,0.29617,-0.00275,0.0,0,0,0,0,0,0,0
17:00:01.512675,"[-39, -28, -23, -39]","[11452, 1750, 3526, 4605]",20.8,-0.38,-0.54,-0.01781,0.00725,-0.98355,0.00714,0.01251,0.79505,0.29617,-0.00275,0.0,0,0,0,0,0,0,0
17:00:01.513672,"[-39, -28, -23, -39]","[11452, 1750, 3526, 4605]",29.75,-0.35,-0.62,-0.01781,0.00725,-0.98355,0.00714,0.01251,0.79505,0.29617,-0.00275,0.0,0,0,0,0,0,0,0
17:00:01.529678,"[-35, -17, -25, -35]","[10336, 1042, 2888, 3563]",29.75,-0.35,-0.62,-0.01781,0.00725,-0.98355,0.00714,0.01251,0.79505,0.29617,-0.00275,0.0,0,0,0,0,0,0,0
17:00:01.529678,"[-35, -17, -25, -35]","[10336, 1042, 2888, 3563]",29.75,-0.35,-0.62,-0.01781,0.00725,-0.98355,0.00714,0.01251,0.79505,0.29617,-0.00275,0.0,0,0,0,0,0,0,0
17:00:01.549292,"[-35, -17, -25, -35]","[10336, 1042, 2888, 3563]",29.75,-0.35,-0.62,-0.01781,0.00725,-0.98355,0.00714,0.01251,0.79505,0.29617,-0.00275,0.0,0,0,0,0,0,0,0
17:00:01.572415,"[-35, -17, -25, -35]","[10336, 1042, 2888, 3563]",29.75,-0.35,-0.62,-0.01781,0.00725,-0.98355,0.00714,0.01251,0.79505,0.29617,-0.00275,0.0,0,0,0,0,0,0,0
17:00:01.573416,"[-35, -17, -25, -35]","[10336, 1042, 2888, 3563]",29.75,-0.35,-0.62,0.02957,0.0122,-0.99634,0.0196,0.002,0.73273,0.29617,-0.00275,0.0,0,0,0,0,0,0,0
17:00:01.592452,"[-30, -31, -22, -27]","[9523, 352, 2206, 2791]",29.75,-0.35,-0.62,0.02957,0.0122,-0.99634,0.0196,0.002,0.73273,0.29617,-0.00275,0.0,0,0,0,0,0,0,0
17:00:01.592452,"[-30, -31, -22, -27]","[9523, 352, 2206, 2791]",29.75,-0.35,-0.62,0.02957,0.0122,-0.99634,0.0196,0.002,0.73273,0.29617,-0.00275,0.0,0,0,0,0,0,0,0
17:00:01.631966,"[-30, -31, -22, -27]","[9523, 352, 2206, 2791]",29.75,-0.35,-0.62,0.02957,0.0122,-0.99634,0.0196,0.002,0.73273,0.29617,-0.00275,0.0,0,0,0,0,0,0,0
17:00:01.651015,"[-30, -40, -33, -24]","[8594, 32245, 1530, 1987]",29.75,-0.35,-0.62,0.02957,0.0122,-0.99634,0.0196,0.002,0.73273,0.29617,-0.00275,0.0,0,0,0,0,0,0,0
17:00:01.651015,"[-30, -40, -33, -24]","[8594, 32245, 1530, 1987]",29.75,-0.35,-0.62,0.02957,0.0122,-0.99634,0.0196,0.002,0.73273,0.29617,-0.00275,0.0,0,0,0,0,0,0,0
17:00:01.670754,"[-30, -40, -33, -24]","[8594, 32245, 1530, 1987]",29.75,-0.35,-0.62,0.02957,0.0122,-0.99634,0.0196,0.002,0.73273,0.29617,-0.00275,0.0,0,0,0,0,0,0,0
17:00:01.691929,"[-24, -32, -40, -25]","[7807, 31243, 677, 1241]",29.75,-0.35,-0.62,0.02957,0.0122,-0.99634,0.0196,0.002,0.73273,0.29617,-0.00275,0.0,0,0,0,0,0,0,0
17:00:01.692930,"[-24, -32, -40, -25]","[7807, 31243, 677, 1241]",29.75,-0.35,-0.62,0.02957,0.0122,-0.99634,0.0196,0.002,0.73273,0.29617,-0.00275,0.0,0,0,0,0,0,0,0
17:00:01.692930,"[-24, -32, -40, -25]","[7807, 31243, 677, 1241]",29.75,-0.35,-0.62,0.04477,-0.00665,-0.99978,0.01703,0.01364,0.81071,0.29617,-0.00275,0.0,0,0,0,0,0,0,0
17:00:01.710713,"[-24, -32, -40, -25]","[7807, 31243, 677, 1241]",29.75,-0.35,-0.62,0.04477,-0.00665,-0.99978,0.01703,0.01364,0.81071,0.29617,-0.00275,0.0,0,0,0,0,0,0,0
17:00:01.733701,"[-24, -32, -40, -25]","[7807, 31243, 677, 1241]",29.75,-0.35,-0.62,0.04477,-0.00665,-0.99978,0.01703,0.01364,0.81071,0.29617,-0.00275,0.0,0,0,0,0,0,0,0
17:00:01.734701,"[-24, -32, -40, -25]","[7807, 31243, 677, 1241]",38.6,-0.34,-0.62,0.04477,-0.00665,-0.99978,0.01703,0.01364,0.81071,0.29617,-0.00275,0.0,0,0,0,0,0,0,0
17:00:01.753717,"[-24, -36, -30, -29]","[7184, 30294, 32456, 670]",38.6,-0.34,-0.62,0.04477,-0.00665,-0.99978,0.01703,0.01364,0.81071,0.29617,-0.00275,0.0,0,0,0,0,0,0,0
17:00:01.755750,"[-24, -36, -30, -29]","[7184, 30294, 32456, 670]",38.6,-0.34,-0.62,0.04477,-0.00665,-0.99978,0.01703,0.01364,0.81071,0.29617,-0.00275,0.0,0,0,0,0,0,0,0
17:00:01.771940,"[-24, -36, -30, -29]","[7184, 30294, 32456, 670]",38.6,-0.34,-0.62,0.04477,-0.00665,-0.99978,0.01703,0.01364,0.81071,0.29617,-0.00275,0.0,0,0,0,0,0,0,0
17:00:01.794964,"[-28, -38, -32, -34]","[6545, 29422, 31481, 32663]",38.6,-0.34,-0.62,0.04477,-0.00665,-0.99978,0.01703,0.01364,0.81071,0.29617,-0.00275,0.0,0,0,0,0,0,0,0
17:00:01.795971,"[-28, -38, -32, -34]","[6545, 29422, 31481, 32663]",38.6,-0.34,-0.62,-0.02709,-0.0216,-0.98813,0.00046,0.00688,0.82715,0.29617,-0.00275,0.0,0,0,0,0,0,0,0
17:00:01.796973,"[-28, -38, -32, -34]","[6545, 29422, 31481, 32663]",38.6,-0.34,-0.62,-0.02709,-0.0216,-0.98813,0.00046,0.00688,0.82715,0.29617,-0.00275,0.0,0,0,0,0,0,0,0
17:00:01.810533,"[-28, -38, -32, -34]","[6545, 29422, 31481, 32663]",38.6,-0.34,-0.62,-0.02709,-0.0216,-0.98813,0.00046,0.00688,0.82715,0.29617,-0.00275,0.0,0,0,0,0,0,0,0
17:00:01.830540,"[-28, -38, -32, -34]","[6545, 29422, 31481, 32663]",38.6,-0.34,-0.62,-0.02709,-0.0216,-0.98813,0.00046,0.00688,0.82715,0.29617,-0.00275,0.0,0,0,0,0,0,0,0
17:00:01.853558,"[-24, -23, -36, -32]","[5718, 28560, 30507, 31686]",38.6,-0.34,-0.62,-0.02709,-0.0216,-0.98813,0.00046,0.00688,0.82715,0.29617,-0.00275,0.0,0,0,0,0,0,0,0
17:00:01.854558,"[-24, -23, -36, -32]","[5718, 28560, 30507, 31686]",38.6,-0.34,-0.62,-0.02709,-0.0216,-0.98813,0.00046,0.00688,0.82715,0.29617,-0.00275,0.0,0,0,0,0,0,0,0
17:00:01.875559,"[-24, -23, -36, -32]","[5718, 28560, 30507, 31686]",38.6,-0.34,-0.62,-0.02709,-0.0216,-0.98813,0.00046,0.00688,0.82715,0.29617,-0.00275,0.0,0,0,0,0,0,0,0
17:00:01.891998,"[-34, -29, -30, -32]","[4982, 27815, 29676, 30873]",38.6,-0.34,-0.62,-0.01776,0.03327,-1.00771,-0.00346,-0.01401,0.7568,0.29617,-0.00275,0.0,0,0,0,0,0,0,0
17:00:01.892998,"[-34, -29, -30, -32]","[4982, 27815, 29676, 30873]",38.6,-0.34,-0.62,-0.01776,0.03327,-1.00771,-0.00346,-0.01401,0.7568,0.29617,-0.00275,0.0,0,0,0,0,0,0,0
17:00:01.894001,"[-34, -29, -30, -32]","[4982, 27815, 29676, 30873]",38.6,-0.34,-0.62,-0.01776,0.03327,-1.00771,-0.00346,-0.01401,0.7568,0.29617,-0.00275,0.0,0,0,0,0,0,0,0
17:00:01.911141,"[-34, -29, -30, -32]","[4982, 27815, 29676, 30873]",38.6,-0.34,-0.62,-0.01776,0.03327,-1.00771,-0.00346,-0.01401,0.7568,0.29617,-0.00275,0.0,0,0,0,0,0,0,0
17:00:01.912146,"[-34, -29, -30, -32]","[4982, 27815, 29676, 30873]",38.6,-0.34,-0.62,-0.01776,0.03327,-1.00771,-0.00346,-0.01401,0.7568,0.28786,-0.00111,0.0,0,0,0,0,0,0,0
17:00:01.929989,"[-34, -29, -30, -32]","[4982, 27815, 29676, 30873]",38.6,-0.34,-0.62,-0.01776,0.03327,-1.00771,-0.00346,-0.01401,0.7568,0.28786,-0.00111,0.0,0,0,0,0,0,0,0
17:00:01.929989,"[-34, -29, -30, -32]","[4982, 27815, 29676, 30873]",47.67,-0.31,-0.69,-0.01776,0.03327,-1.00771,-0.00346,-0.01401,0.7568,0.28786,-0.00111,0.0,0,0,0,0,0,0,0
17:00:01.952035,"[-34, -29, -30, -32]","[4982, 27815, 29676, 30873]",47.67,-0.31,-0.69,-0.01776,0.03327,-1.00771,-0.00346,-0.01401,0.7568,0.28786,-0.00111,0.0,0,0,0,0,0,0,0
17:00:01.957595,"[-30, -31, -26, -33]","[4131, 27107, 28933, 30036]",47.67,-0.31,-0.69,-0.01776,0.03327,-1.00771,-0.00346,-0.01401,0.7568,0.28786,-0.00111,0.0,0,0,0,0,0,0,0
17:00:01.971018,"[-30, -31, -26, -33]","[4131, 27107, 28933, 30036]",47.67,-0.31,-0.69,-0.01776,0.03327,-1.00771,-0.00346,-0.01401,0.7568,0.28786,-0.00111,0.0,0,0,0,0,0,0,0
17:00:01.989969,"[-31, -34, -27, -35]","[3242, 26430, 28171, 29107]",47.67,-0.31,-0.69,-0.01776,0.03327,-1.00771,-0.00346,-0.01401,0.7568,0.28786,-0.00111,0.0,0,0,0,0,0,0,0
17:00:01.991129,"[-31, -34, -27, -35]","[3242, 26430, 28171, 29107]",47.67,-0.31,-0.69,-0.01776,0.03327,-1.00771,-0.00346,-0.01401,0.7568,0.28786,-0.00111,0.0,0,0,0,0,0,0,0
17:00:01.991999,"[-31, -34, -27, -35]","[3242, 26430, 28171, 29107]",47.67,-0.31,-0.69,-0.0028,0.02453,-0.98578,0.01685,0.00841,0.78575,0.28786,-0.00111,0.0,0,0,0,0,0,0,0
17:00:02.012287,"[-31, -34, -27, -35]","[3242, 26430, 28171, 29107]",47.67,-0.31,-0.69,-0.0028,0.02453,-0.98578,0.01685,0.00841,0.78575,0.28786,-0.00111,0.0,0,0,0,0,0,0,0
17:00:02.042482,"[-31, -34, -27, -35]","[3242, 26430, 28171, 29107]",47.67,-0.31,-0.69,-0.0028,0.02453,-0.98578,0.01685,0.00841,0.78575,0.28786,-0.00111,0.0,0,0,0,0,0,0,0
17:00:02.053024,"[-28, -25, -32, -31]","[2250, 25600, 27488, 28249]",47.67,-0.31,-0.69,-0.0028,0.02453,-0.98578,0.01685,0.00841,0.78575,0.28786,-0.00111,0.0,0,0,0,0,0,0,0
17:00:02.053024,"[-28, -25, -32, -31]","[2250, 25600, 27488, 28249]",47.67,-0.31,-0.69,-0.0028,0.02453,-0.98578,0.01685,0.00841,0.78575,0.28786,-0.00111,0.0,0,0,0,0,0,0,0
17:00:02.072671,"[-28, -25, -32, -31]","[2250, 25600, 27488, 28249]",47.67,-0.31,-0.69,-0.0028,0.02453,-0.98578,0.01685,0.00841,0.78575,0.28786,-0.00111,0.0,0,0,0,0,0,0,0
17:00:02.095292,"[-33, -26, -30, -34]","[1401, 24778, 26671, 27494]",47.67,-0.31,-0.69,-0.0028,0.02453,-0.98578,0.01685,0.00841,0.78575,0.28786,-0.00111,0.0,0,0,0,0,0,0,0
17:00:02.095292,"[-33, -26, -30, -34]","[1401, 24778, 26671, 27494]",47.67,-0.31,-0.69,0.0105,0.01266,-1.00509,0.02003,-0.00504,0.80378,0.28786,-0.00111,0.0,0,0,0,0,0,0,0
17:00:02.096291,"[-33, -26, -30, -34]","[1401, 24778, 26671, 27494]",47.67,-0.31,-0.69,0.0105,0.01266,-1.00509,0.02003,-0.00504,0.80378,0.28786,-0.00111,0.0,0,0,0,0,0,0,0
17:00:02.109861,"[-33, -26, -30, -34]","[1401, 24778, 26671, 27494]",47.67,-0.31,-0.69,0.0105,0.01266,-1.00509,0.02003,-0.00504,0.80378,0.28786,-0.00111,0.0,0,0,0,0,0,0,0
17:00:02.132705,"[-33, -26, -30, -34]","[1401, 24778, 26671, 27494]",47.67,-0.31,-0.69,0.0105,0.01266,-1.00509,0.02003,-0.00504,0.80378,0.28786,-0.00111,0.0,0,0,0,0,0,0,0
17:00:02.133710,"[-33, -26, -30, -34]","[1401, 24778, 26671, 27494]",56.67,-0.24,-0.73,0.0105,0.01266,-1.00509,0.02003,-0.00504,0.80378,0.28786,-0.00111,0.0,0,0,0,0,0,0,0
17:00:02.155264,"[-36, -41, -34, -26]","[620, 23972, 25919, 26754]",56.67,-0.24,-0.73,0.0105,0.01266,-1.00509,0.02003,-0.00504,0.80378,0.28786,-0.00111,0.0,0,0,0,0,0,0,0
17:00:02.156103,"[-36, -41, -34, -26]","[620, 23972, 25919, 26754]",56.67,-0.24,-0.73,0.0105,0.01266,-1.00509,0.02003,-0.00504,0.80378,0.28786,-0.00111,0.0,0,0,0,0,0,0,0
17:00:02.174988,"[-36, -41, -34, -26]","[620, 23972, 25919, 26754]",56.67,-0.24,-0.73,0.0105,0.01266,-1.00509,0.02003,-0.00504,0.80378,0.28786,-0.00111,0.0,0,0,0,0,0,0,0
17:00:02.212247,"[-28, -32, -30, -16]","[31750, 22101, 24139, 25285]",56.67,-0.24,-0.73,0.0105,0.01266,-1.00509,0.02003,-0.00504,0.80378,0.28786,-0.00111,0.0,0,0,0,0,0,0,0
17:00:02.212247,"[-28, -32, -30, -16]","[31750, 22101, 24139, 25285]",56.67,-0.24,-0.73,0.02135,0.01534,-1.00986,0.0013,-0.00172,0.76982,0.28786,-0.00111,0.0,0,0,0,0,0,0,0
17:00:02.214237,"[-28, -32, -30, -16]","[31750, 22101, 24139, 25285]",56.67,-0.24,-0.73,0.02135,0.01534,-1.00986,0.0013,-0.00172,0.76982,0.28786,-0.00111,0.0,0,0,0,0,0,0,0
17:00:02.231243,"[-28, -32, -30, -16]","[31750, 22101, 24139, 25285]",56.67,-0.24,-0.73,0.02135,0.01534,-1.00986,0.0013,-0.00172,0.76982,0.28786,-0.00111,0.0,0,0,0,0,0,0,0
17:00:02.249665,"[-28, -32, -30, -16]","[31750, 22101, 24139, 25285]",56.67,-0.24,-0.73,0.02135,0.01534,-1.00986,0.0013,-0.00172,0.76982,0.28786,-0.00111,0.0,0,0,0,0,0,0,0
17:00:02.270611,"[-32, -32, -28, -22]","[31072, 21332, 23315, 24554]",56.67,-0.24,-0.73,0.02135,0.01534,-1.00986,0.0013,-0.00172,0.76982,0.28786,-0.00111,0.0,0,0,0,0,0,0,0
17:00:02.271612,"[-32, -32, -28, -22]","[31072, 21332, 23315, 24554]",56.67,-0.24,-0.73,0.02135,0.01534,-1.00986,0.0013,-0.00172,0.76982,0.28786,-0.00111,0.0,0,0,0,0,0,0,0
17:00:02.289610,"[-32, -32, -28, -22]","[31072, 21332, 23315, 24554]",56.67,-0.24,-0.73,0.02135,0.01534,-1.00986,0.0013,-0.00172,0.76982,0.28786,-0.00111,0.0,0,0,0,0,0,0,0
17:00:02.312404,"[-26, -32, -34, -41]","[30228, 20490, 22390, 23623]",56.67,-0.24,-0.73,-0.0172,-0.02176,-0.98729,-0.01049,0.00741,0.78594,0.28786,-0.00111,0.0,0,0,0,0,0,0,0
17:00:02.313395,"[-26, -32, -34, -41]","[30228, 20490, 22390, 23623]",56.67,-0.24,-0.73,-0.0172,-0.02176,-0.98729,-0.01049,0.00741,0.78594,0.28786,-0.00111,0.0,0,0,0,0,0,0,0
17:00:02.313395,"[-26, -32, -34, -41]","[30228, 20490, 22390, 23623]",56.67,-0.24,-0.73,-0.0172,-0.02176,-0.98729,-0.01049,0.00741,0.78594,0.28786,-0.00111,0.0,0,0,0,0,0,0,0
17:00:02.333920,"[-26, -32, -34, -41]","[30228, 20490, 22390, 23623]",56.67,-0.24,-0.73,-0.0172,-0.02176,-0.98729,-0.01049,0.00741,0.78594,0.28786,-0.00111,0.0,0,0,0,0,0,0,0
17:00:02.351041,"[-26, -32, -34, -41]","[30228, 20490, 22390, 23623]",56.67,-0.24,-0.73,-0.0172,-0.02176,-0.98729,-0.01049,0.00741,0.78594,0.28786,-0.00111,0.0,0,0,0,0,0,0,0
17:00:02.351041,"[-26, -32, -34, -41]","[30228, 20490, 22390, 23623]",65.71,-0.21,-0.72,-0.0172,-0.02176,-0.98729,-0.01049,0.00741,0.78594,0.28786,-0.00111,0.0,0,0,0,0,0,0,0
17:00:02.370971,"[-28, -24, -25, -27]","[29441, 19717, 21558, 22779]",65.71,-0.21,-0.72,-0.0172,-0.02176,-0.98729,-0.01049,0.00741,0.78594,0.28786,-0.00111,0.0,0,0,0,0,0,0,0
17:00:02.371978,"[-28, -24, -25, -27]","[29441, 19717, 21558, 22779]",65.71,-0.21,-0.72,-0.0172,-0.02176,-0.98729,-0.01049,0.00741,0.78594,0.28786,-0.00111,0.0,0,0,0,0,0,0,0
17:00:02.391994,"[-28, -24, -25, -27]","[29441, 19717, 21558, 22779]",65.71,-0.21,-0.72,-0.0172,-0.02176,-0.98729,-0.01049,0.00741,0.78594,0.28786,-0.00111,0.0,0,0,0,0,0,0,0
17:00:02.410537,"[-28, -24, -25, -27]","[29441, 19717, 21558, 22779]",65.71,-0.21,-0.72,-0.0172,-0.02176,-0.98729,-0.01049,0.00741,0.78594,0.28786,-0.00111,0.0,0,0,0,0,0,0,0
17:00:02.412540,"[-28, -24, -25, -27]","[29441, 19717, 21558, 22779]",65.71,-0.21,-0.72,-0.01233,0.0148,-1.00243,-0.0,0.01838,0.74565,0.28786,-0.00111,0.0,0,0,0,0,0,0,0
17:00:02.431085,"[-42, -27, -27, -33]","[28626, 19081, 20850, 21928]",65.71,-0.21,-0.72,-0.01233,0.0148,-1.00243,-0.0,0.01838,0.74565,0.28786,-0.00111,0.0,0,0,0,0,0,0,0
17:00:02.431085,"[-42, -27, -27, -33]","[28626, 19081, 20850, 21928]",65.71,-0.21,-0.72,-0.01233,0.0148,-1.00243,-0.0,0.01838,0.74565,0.28786,-0.00111,0.0,0,0,0,0,0,0,0
17:00:02.451261,"[-42, -27, -27, -33]","[28626, 19081, 20850, 21928]",65.71,-0.21,-0.72,-0.01233,0.0148,-1.00243,-0.0,0.01838,0.74565,0.28786,-0.00111,0.0,0,0,0,0,0,0,0
17:00:02.472325,"[-33, -38, -34, -30]","[27709, 18314, 20000, 21062]",65.71,-0.21,-0.72,-0.01233,0.0148,-1.00243,-0.0,0.01838,0.74565,0.28786,-0.00111,0.0,0,0,0,0,0,0,0
17:00:02.473324,"[-33, -38, -34, -30]","[27709, 18314, 20000, 21062]",65.71,-0.21,-0.72,-0.01233,0.0148,-1.00243,-0.0,0.01838,0.74565,0.28786,-0.00111,0.0,0,0,0,0,0,0,0
17:00:02.493356,"[-33, -38, -34, -30]","[27709, 18314, 20000, 21062]",65.71,-0.21,-0.72,-0.01233,0.0148,-1.00243,-0.0,0.01838,0.74565,0.28786,-0.00111,0.0,0,0,0,0,0,0,0
17:00:02.511709,"[-33, -38, -34, -30]","[27709, 18314, 20000, 21062]",65.71,-0.21,-0.72,-0.01233,0.0148,-1.00243,-0.0,0.01838,0.74565,0.28786,-0.00111,0.0,0,0,0,0,0,0,0
17:00:02.513714,"[-33, -38, -34, -30]","[27709, 18314, 20000, 21062]",65.71,-0.21,-0.72,0.02636,0.03297,-0.98382,0.02779,0.01433,0.76894,0.28786,-0.00111,0.0,0,0,0,0,0,0,0
17:00:02.531390,"[-28, -19, -32, -35]","[26806, 17397, 19196, 20232]",65.71,-0.21,-0.72,0.02636,0.03297,-0.98382,0.02779,0.01433,0.76894,0.28786,-0.00111,0.0,0,0,0,0,0,0,0
17:00:02.533509,"[-28, -19, -32, -35]","[26806, 17397, 19196, 20232]",65.71,-0.21,-0.72,0.02636,0.03297,-0.98382,0.02779,0.01433,0.76894,0.28786,-0.00111,0.0,0,0,0,0,0,0,0
17:00:02.551322,"[-28, -19, -32, -35]","[26806, 17397, 19196, 20232]",65.71,-0.21,-0.72,0.02636,0.03297,-0.98382,0.02779,0.01433,0.76894,0.28786,-0.00111,0.0,0,0,0,0,0,0,0
17:00:02.552316,"[-28, -19, -32, -35]","[26806, 17397, 19196, 20232]",74.66,-0.14,-0.77,0.02636,0.03297,-0.98382,0.02779,0.01433,0.76894,0.28786,-0.00111,0.0,0,0,0,0,0,0,0
17:00:02.571775,"[-33, -22, -30, -23]","[26032, 16646, 18456, 19492]",74.66,-0.14,-0.77,0.02636,0.03297,-0.98382,0.02779,0.01433,0.76894,0.28786,-0.00111,0.0,0,0,0,0,0,0,0
17:00:02.571775,"[-33, -22, -30, -23]","[26032, 16646, 18456, 19492]",74.66,-0.14,-0.77,0.02636,0.03297,-0.98382,0.02779,0.01433,0.76894,0.28786,-0.00111,0.0,0,0,0,0,0,0,0
17:00:02.590816,"[-33, -22, -30, -23]","[26032, 16646, 18456, 19492]",74.66,-0.14,-0.77,0.02636,0.03297,-0.98382,0.02779,0.01433,0.76894,0.28786,-0.00111,0.0,0,0,0,0,0,0,0
17:00:02.612366,"[-33, -22, -30, -23]","[26032, 16646, 18456, 19492]",74.66,-0.14,-0.77,0.00385,0.00661,-1.01197,-0.02406,-0.01018,0.75627,0.28786,-0.00111,0.0,0,0,0,0,0,0,0
17:00:02.612366,"[-33, -22, -30, -23]","[26032, 16646, 18456, 19492]",74.66,-0.14,-0.77,0.00385,0.00661,-1.01197,-0.02406,-0.01018,0.75627,0.28786,-0.00111,0.0,0,0,0,0,0,0,0
17:00:02.630362,"[-33, -33, -38, -41]","[25255, 15835, 17498, 18718]",74.66,-0.14,-0.77,0.00385,0.00661,-1.01197,-0.02406,-0.01018,0.75627,0.28786,-0.00111,0.0,0,0,0,0,0,0,0
17:00:02.630362,"[-33, -33, -38, -41]","[25255, 15835, 17498, 18718]",74.66,-0.14,-0.77,0.00385,0.00661,-1.01197,-0.02406,-0.01018,0.75627,0.28786,-0.00111,0.0,0,0,0,0,0,0,0
17:00:02.648821,"[-33, -33, -38, -41]","[25255, 15835, 17498, 18718]",74.66,-0.14,-0.77,0.00385,0.00661,-1.01197,-0.02406,-0.01018,0.75627,0.28786,-0.00111,0.0,0,0,0,0,0,0,0
17:00:02.670905,"[-33, -33, -38, -41]","[25255, 15835, 17498, 18718]",74.66,-0.14,-0.77,0.00385,0.00661,-1.01197,-0.02406,-0.01018,0.75627,0.28786,-0.00111,0.0,0,0,0,0,0,0,0
17:00:02.672915,"[-33, -24, -21, -35]","[24413, 14879, 16669, 17882]",74.66,-0.14,-0.77,0.00385,0.00661,-1.01197,-0.02406,-0.01018,0.75627,0.28786,-0.00111,0.0,0,0,0,0,0,0,0
17:00:02.689907,"[-33, -24, -21, -35]","[24413, 14879, 16669, 17882]",74.66,-0.14,-0.77,0.00385,0.00661,-1.01197,-0.02406,-0.01018,0.75627,0.28786,-0.00111,0.0,0,0,0,0,0,0,0
17:00:02.710467,"[-33, -24, -21, -35]","[24413, 14879, 16669, 17882]",74.66,-0.14,-0.77,0.00385,0.00661,-1.01197,-0.02406,-0.01018,0.75627,0.28786,-0.00111,0.0,0,0,0,0,0,0,0
17:00:02.710467,"[-33, -24, -21, -35]","[24413, 14879, 16669, 17882]",74.66,-0.14,-0.77,-0.00639,0.0048,-0.99551,-0.00048,0.04095,0.80349,0.28786,-0.00111,0.0,0,0,0,0,0,0,0
17:00:02.733475,"[-35, -34, -26, -22]","[23593, 14124, 15947, 17127]",74.66,-0.14,-0.77,-0.00639,0.0048,-0.99551,-0.00048,0.04095,0.80349,0.28786,-0.00111,0.0,0,0,0,0,0,0,0
17:00:02.735481,"[-35, -34, -26, -22]","[23593, 14124, 15947, 17127]",74.66,-0.14,-0.77,-0.00639,0.0048,-0.99551,-0.00048,0.04095,0.80349,0.28786,-0.00111,0.0,0,0,0,0,0,0,0
17:00:02.753888,"[-35, -34, -26, -22]","[23593, 14124, 15947, 17127]",83.59,-0.1,-0.86,-0.00639,0.0048,-0.99551,-0.00048,0.04095,0.80349,0.28786,-0.00111,0.0,0,0,0,0,0,0,0
17:00:02.753888,"[-35, -34, -26, -22]","[23593, 14124, 15947, 17127]",83.59,-0.1,-0.86,-0.00639,0.0048,-0.99551,-0.00048,0.04095,0.80349,0.28786,-0.00111,0.0,0,0,0,0,0,0,0
17:00:02.775509,"[-36, -33, -29, -30]","[22798, 13360, 15049, 16390]",83.59,-0.1,-0.86,-0.00639,0.0048,-0.99551,-0.00048,0.04095,0.80349,0.28786,-0.00111,0.0,0,0,0,0,0,0,0
17:00:02.776507,"[-36, -33, -29, -30]","[22798, 13360, 15049, 16390]",83.59,-0.1,-0.86,-0.00639,0.0048,-0.99551,-0.00048,0.04095,0.80349,0.28786,-0.00111,0.0,0,0,0,0,0,0,0
17:00:02.790316,"[-36, -33, -29, -30]","[22798, 13360, 15049, 16390]",83.59,-0.1,-0.86,-0.00639,0.0048,-0.99551,-0.00048,0.04095,0.80349,0.28786,-0.00111,0.0,0,0,0,0,0,0,0
17:00:02.813586,"[-36, -33, -29, -30]","[22798, 13360, 15049, 16390]",83.59,-0.1,-0.86,-0.00639,0.0048,-0.99551,-0.00048,0.04095,0.80349,0.28786,-0.00111,0.0,0,0,0,0,0,0,0
17:00:02.813586,"[-36, -33, -29, -30]","[22798, 13360, 15049, 16390]",83.59,-0.1,-0.86,-0.00235,-0.02319,-0.99103,-0.02305,-0.00054,0.83583,0.28786,-0.00111,0.0,0,0,0,0,0,0,0
17:00:02.831577,"[-10, -11, -17, -24]","[22161, 12591, 14401, 15722]",83.59,-0.1,-0.86,-0.00235,-0.02319,-0.99103,-0.02305,-0.00054,0.83583,0.28786,-0.00111,0.0,0,0,0,0,0,0,0
17:00:02.831577,"[-10, -11, -17, -24]","[22161, 12591, 14401, 15722]",83.59,-0.1,-0.86,-0.00235,-0.02319,-0.99103,-0.02305,-0.00054,0.83583,0.28786,-0.00111,0.0,0,0,0,0,0,0,0
17:00:02.854350,"[-10, -11, -17, -24]","[22161, 12591, 14401, 15722]",83.59,-0.1,-0.86,-0.00235,-0.02319,-0.99103,-0.02305,-0.00054,0.83583,0.28786,-0.00111,0.0,0,0,0,0,0,0,0
17:00:02.872972,"[11, -1, -8, -9]","[21951, 12398, 14074, 15261]",83.59,-0.1,-0.86,-0.00235,-0.02319,-0.99103,-0.02305,-0.00054,0.83583,0.28786,-0.00111,0.0,0,0,0,0,0,0,0
17:00:02.872972,"[11, -1, -8, -9]","[21951, 12398, 14074, 15261]",83.59,-0.1,-0.86,-0.00235,-0.02319,-0.99103,-0.02305,-0.00054,0.83583,0.28786,-0.00111,0.0,0,0,0,0,0,0,0
17:00:02.894997,"[11, -1, -8, -9]","[21951, 12398, 14074, 15261]",83.59,-0.1,-0.86,-0.00235,-0.02319,-0.99103,-0.02305,-0.00054,0.83583,0.28786,-0.00111,0.0,0,0,0,0,0,0,0
17:00:02.912560,"[11, -1, -8, -9]","[21951, 12398, 14074, 15261]",83.59,-0.1,-0.86,-0.00235,-0.02319,-0.99103,-0.02305,-0.00054,0.83583,0.28786,-0.00111,0.0,0,0,0,0,0,0,0
17:00:02.912560,"[11, -1, -8, -9]","[21951, 12398, 14074, 15261]",83.59,-0.1,-0.86,-0.0075,0.03069,-1.00709,-0.00198,0.02262,0.21605,0.28786,-0.00111,0.0,0,0,0,0,0,0,0
17:00:02.932498,"[9, -6, -13, 4]","[22076, 12487, 14039, 15242]",83.59,-0.1,-0.86,-0.0075,0.03069,-1.00709,-0.00198,0.02262,0.21605,0.28786,-0.00111,0.0,0,0,0,0,0,0,0
17:00:02.932498,"[9, -6, -13, 4]","[22076, 12487, 14039, 15242]",83.59,-0.1,-0.86,-0.0075,0.03069,-1.00709,-0.00198,0.02262,0.21605,0.28786,-0.00111,0.0,0,0,0,0,0,0,0
17:00:02.933492,"[9, -6, -13, 4]","[22076, 12487, 14039, 15242]",83.59,-0.1,-0.86,-0.0075,0.03069,-1.00709,-0.00198,0.02262,0.21605,0.2866,0.001,0.0,0,0,0,0,0,0,0
17:00:02.949245,"[9, -6, -13, 4]","[22076, 12487, 14039, 15242]",83.59,-0.1,-0.86,-0.0075,0.03069,-1.00709,-0.00198,0.02262,0.21605,0.2866,0.001,0.0,0,0,0,0,0,0,0
17:00:02.949245,"[9, -6, -13, 4]","[22076, 12487, 14039, 15242]",88.38,-0.02,-0.87,-0.0075,0.03069,-1.00709,-0.00198,0.02262,0.21605,0.2866,0.001,0.0,0,0,0,0,0,0,0
17:00:02.971648,"[81, -25, -34, 23]","[23356, 12216, 13540, 15542]",88.38,-0.02,-0.87,-0.0075,0.03069,-1.00709,-0.00198,0.02262,0.21605,0.2866,0.001,0.0,0,0,0,0,0,0,0
17:00:02.972209,"[81, -25, -34, 23]","[23356, 12216, 13540, 15542]",88.38,-0.02,-0.87,-0.0075,0.03069,-1.00709,-0.00198,0.02262,0.21605,0.2866,0.001,0.0,0,0,0,0,0,0,0
17:00:02.990537,"[81, -25, -34, 23]","[23356, 12216, 13540, 15542]",88.38,-0.02,-0.87,-0.0075,0.03069,-1.00709,-0.00198,0.02262,0.21605,0.2866,0.001,0.0,0,0,0,0,0,0,0
17:00:03.012421,"[81, -25, -34, 23]","[23356, 12216, 13540, 15542]",88.38,-0.02,-0.87,-0.0075,0.03069,-1.00709,-0.00198,0.02262,0.21605,0.2866,0.001,0.0,0,0,0,0,0,0,0
17:00:03.012977,"[81, -25, -34, 23]","[23356, 12216, 13540, 15542]",88.38,-0.02,-0.87,0.17028,-0.00564,-0.99432,0.02469,0.04555,0.06569,0.2866,0.001,0.0,0,0,0,0,0,0,0
17:00:03.031008,"[90, -76, -71, 78]","[25843, 10671, 12400, 16738]",88.38,-0.02,-0.87,0.17028,-0.00564,-0.99432,0.02469,0.04555,0.06569,0.2866,0.001,0.0,0,0,0,0,0,0,0
17:00:03.031610,"[90, -76, -71, 78]","[25843, 10671, 12400, 16738]",88.38,-0.02,-0.87,0.17028,-0.00564,-0.99432,0.02469,0.04555,0.06569,0.2866,0.001,0.0,0,0,0,0,0,0,0
17:00:03.049007,"[90, -76, -71, 78]","[25843, 10671, 12400, 16738]",88.38,-0.02,-0.87,0.17028,-0.00564,-0.99432,0.02469,0.04555,0.06569,0.2866,0.001,0.0,0,0,0,0,0,0,0
17:00:03.069449,"[52, -50, -54, 69]","[27788, 9015, 10332, 18961]",88.38,-0.02,-0.87,0.17028,-0.00564,-0.99432,0.02469,0.04555,0.06569,0.2866,0.001,0.0,0,0,0,0,0,0,0
17:00:03.070468,"[52, -50, -54, 69]","[27788, 9015, 10332, 18961]",88.38,-0.02,-0.87,0.17028,-0.00564,-0.99432,0.02469,0.04555,0.06569,0.2866,0.001,0.0,0,0,0,0,0,0,0
17:00:03.090000,"[52, -50, -54, 69]","[27788, 9015, 10332, 18961]",88.38,-0.02,-0.87,0.17028,-0.00564,-0.99432,0.02469,0.04555,0.06569,0.2866,0.001,0.0,0,0,0,0,0,0,0
17:00:03.111887,"[52, -50, -54, 69]","[27788, 9015, 10332, 18961]",88.38,-0.02,-0.87,0.2529,-0.01198,-1.0404,-0.08981,-0.05223,0.00189,0.2866,0.001,0.0,0,0,0,0,0,0,0
17:00:03.112913,"[52, -50, -54, 69]","[27788, 9015, 10332, 18961]",88.38,-0.02,-0.87,0.2529,-0.01198,-1.0404,-0.08981,-0.05223,0.00189,0.2866,0.001,0.0,0,0,0,0,0,0,0
17:00:03.132914,"[61, -53, -67, 55]","[29496, 7521, 8750, 20754]",88.38,-0.02,-0.87,0.2529,-0.01198,-1.0404,-0.08981,-0.05223,0.00189,0.2866,0.001,0.0,0,0,0,0,0,0,0
17:00:03.135917,"[61, -53, -67, 55]","[29496, 7521, 8750, 20754]",88.38,-0.02,-0.87,0.2529,-0.01198,-1.0404,-0.08981,-0.05223,0.00189,0.2866,0.001,0.0,0,0,0,0,0,0,0
17:00:03.152940,"[61, -53, -67, 55]","[29496, 7521, 8750, 20754]",88.38,-0.02,-0.87,0.2529,-0.01198,-1.0404,-0.08981,-0.05223,0.00189,0.2866,0.001,0.0,0,0,0,0,0,0,0
17:00:03.153940,"[61, -53, -67, 55]","[29496, 7521, 8750, 20754]",88.35,-0.11,-0.72,0.2529,-0.01198,-1.0404,-0.08981,-0.05223,0.00189,0.2866,0.001,0.0,0,0,0,0,0,0,0
17:00:03.176081,"[46, -46, -50, 45]","[30994, 6487, 7361, 22201]",88.35,-0.11,-0.72,0.2529,-0.01198,-1.0404,-0.08981,-0.05223,0.00189,0.2866,0.001,0.0,0,0,0,0,0,0,0
17:00:03.177084,"[46, -46, -50, 45]","[30994, 6487, 7361, 22201]",88.35,-0.11,-0.72,0.2529,-0.01198,-1.0404,-0.08981,-0.05223,0.00189,0.2866,0.001,0.0,0,0,0,0,0,0,0
17:00:03.191110,"[46, -46, -50, 45]","[30994, 6487, 7361, 22201]",88.35,-0.11,-0.72,0.2529,-0.01198,-1.0404,-0.08981,-0.05223,0.00189,0.2866,0.001,0.0,0,0,0,0,0,0,0
17:00:03.212626,"[46, -46, -50, 45]","[30994, 6487, 7361, 22201]",88.35,-0.11,-0.72,0.2529,-0.01198,-1.0404,-0.08981,-0.05223,0.00189,0.2866,0.001,0.0,0,0,0,0,0,0,0
17:00:03.213634,"[46, -46, -50, 45]","[30994, 6487, 7361, 22201]",88.35,-0.11,-0.72,-0.19432,0.0365,-0.97632,0.03198,-0.01884,-0.07144,0.2866,0.001,0.0,0,0,0,0,0,0,0
17:00:03.229413,"[45, -36, -47, 37]","[32082, 5370, 6206, 23318]",88.35,-0.11,-0.72,-0.19432,0.0365,-0.97632,0.03198,-0.01884,-0.07144,0.2866,0.001,0.0,0,0,0,0,0,0,0
17:00:03.230418,"[45, -36, -47, 37]","[32082, 5370, 6206, 23318]",88.35,-0.11,-0.72,-0.19432,0.0365,-0.97632,0.03198,-0.01884,-0.07144,0.2866,0.001,0.0,0,0,0,0,0,0,0
17:00:03.249456,"[45, -36, -47, 37]","[32082, 5370, 6206, 23318]",88.35,-0.11,-0.72,-0.19432,0.0365,-0.97632,0.03198,-0.01884,-0.07144,0.2866,0.001,0.0,0,0,0,0,0,0,0
17:00:03.270652,"[54, -45, -51, 50]","[666, 4154, 4979, 24676]",88.35,-0.11,-0.72,-0.19432,0.0365,-0.97632,0.03198,-0.01884,-0.07144,0.2866,0.001,0.0,0,0,0,0,0,0,0
17:00:03.271682,"[54, -45, -51, 50]","[666, 4154, 4979, 24676]",88.35,-0.11,-0.72,-0.19432,0.0365,-0.97632,0.03198,-0.01884,-0.07144,0.2866,0.001,0.0,0,0,0,0,0,0,0
17:00:03.290841,"[54, -45, -51, 50]","[666, 4154, 4979, 24676]",88.35,-0.11,-0.72,-0.19432,0.0365,-0.97632,0.03198,-0.01884,-0.07144,0.2866,0.001,0.0,0,0,0,0,0,0,0
17:00:03.310498,"[54, -45, -51, 50]","[666, 4154, 4979, 24676]",88.35,-0.11,-0.72,-0.19432,0.0365,-0.97632,0.03198,-0.01884,-0.07144,0.2866,0.001,0.0,0,0,0,0,0,0,0
17:00:03.310498,"[54, -45, -51, 50]","[666, 4154, 4979, 24676]",88.35,-0.11,-0.72,0.10073,0.00384,-1.00825,-0.00308,0.01388,-0.0254,0.2866,0.001,0.0,0,0,0,0,0,0,0
17:00:03.336337,"[66, -77, -66, 70]","[2280, 2509, 3367, 26392]",88.35,-0.11,-0.72,0.10073,0.00384,-1.00825,-0.00308,0.01388,-0.0254,0.2866,0.001,0.0,0,0,0,0,0,0,0
17:00:03.336337,"[66, -77, -66, 70]","[2280, 2509, 3367, 26392]",88.35,-0.11,-0.72,0.10073,0.00384,-1.00825,-0.00308,0.01388,-0.0254,0.2866,0.001,0.0,0,0,0,0,0,0,0
17:00:03.354428,"[66, -77, -66, 70]","[2280, 2509, 3367, 26392]",88.35,-0.11,-0.72,0.10073,0.00384,-1.00825,-0.00308,0.01388,-0.0254,0.2866,0.001,0.0,0,0,0,0,0,0,0
17:00:03.355385,"[66, -77, -66, 70]","[2280, 2509, 3367, 26392]",88.1,-0.1,-0.77,0.10073,0.00384,-1.00825,-0.00308,0.01388,-0.0254,0.2866,0.001,0.0,0,0,0,0,0,0,0
17:00:03.373918,"[59, -72, -71, 69]","[4229, 707, 1525, 28264]",88.1,-0.1,-0.77,0.10073,0.00384,-1.00825,-0.00308,0.01388,-0.0254,0.2866,0.001,0.0,0,0,0,0,0,0,0
17:00:03.374917,"[59, -72, -71, 69]","[4229, 707, 1525, 28264]",88.1,-0.1,-0.77,0.10073,0.00384,-1.00825,-0.00308,0.01388,-0.0254,0.2866,0.001,0.0,0,0,0,0,0,0,0
17:00:03.393133,"[59, -72, -71, 69]","[4229, 707, 1525, 28264]",88.1,-0.1,-0.77,0.10073,0.00384,-1.00825,-0.00308,0.01388,-0.0254,0.2866,0.001,0.0,0,0,0,0,0,0,0
17:00:03.410746,"[59, -72, -71, 69]","[4229, 707, 1525, 28264]",88.1,-0.1,-0.77,0.10073,0.00384,-1.00825,-0.00308,0.01388,-0.0254,0.2866,0.001,0.0,0,0,0,0,0,0,0
17:00:03.411743,"[59, -72, -71, 69]","[4229, 707, 1525, 28264]",88.1,-0.1,-0.77,0.04751,0.00598,-0.98676,0.07979,-0.0045,-0.00521,0.2866,0.001,0.0,0,0,0,0,0,0,0
17:00:03.429420,"[50, -65, -48, 56]","[5807, 31727, 32543, 29994]",88.1,-0.1,-0.77,0.04751,0.00598,-0.98676,0.07979,-0.0045,-0.00521,0.2866,0.001,0.0,0,0,0,0,0,0,0
17:00:03.429420,"[50, -65, -48, 56]","[5807, 31727, 32543, 29994]",88.1,-0.1,-0.77,0.04751,0.00598,-0.98676,0.07979,-0.0045,-0.00521,0.2866,0.001,0.0,0,0,0,0,0,0,0
17:00:03.451002,"[50, -65, -48, 56]","[5807, 31727, 32543, 29994]",88.1,-0.1,-0.77,0.04751,0.00598,-0.98676,0.07979,-0.0045,-0.00521,0.2866,0.001,0.0,0,0,0,0,0,0,0
17:00:03.471713,"[56, -47, -57, 55]","[7300, 30167, 31038, 31525]",88.1,-0.1,-0.77,0.04751,0.00598,-0.98676,0.07979,-0.0045,-0.00521,0.2866,0.001,0.0,0,0,0,0,0,0,0
17:00:03.472718,"[56, -47, -57, 55]","[7300, 30167, 31038, 31525]",88.1,-0.1,-0.77,0.04751,0.00598,-0.98676,0.07979,-0.0045,-0.00521,0.2866,0.001,0.0,0,0,0,0,0,0,0
17:00:03.490349,"[56, -47, -57, 55]","[7300, 30167, 31038, 31525]",88.1,-0.1,-0.77,0.04751,0.00598,-0.98676,0.07979,-0.0045,-0.00521,0.2866,0.001,0.0,0,0,0,0,0,0,0
17:00:03.510948,"[56, -47, -57, 55]","[7300, 30167, 31038, 31525]",88.1,-0.1,-0.77,0.04751,0.00598,-0.98676,0.07979,-0.0045,-0.00521,0.2866,0.001,0.0,0,0,0,0,0,0,0
17:00:03.511936,"[56, -47, -57, 55]","[7300, 30167, 31038, 31525]",88.1,-0.1,-0.77,-0.13593,-5e-05,-0.98049,-0.02066,0.02941,0.02443,0.2866,0.001,0.0,0,0,0,0,0,0,0
17:00:03.531598,"[70, -47, -61, 62]","[8715, 28808, 29589, 259]",88.1,-0.1,-0.77,-0.13593,-5e-05,-0.98049,-0.02066,0.02941,0.02443,0.2866,0.001,0.0,0,0,0,0,0,0,0
17:00:03.531598,"[70, -47, -61, 62]","[8715, 28808, 29589, 259]",88.1,-0.1,-0.77,-0.13593,-5e-05,-0.98049,-0.02066,0.02941,0.02443,0.2866,0.001,0.0,0,0,0,0,0,0,0
17:00:03.560266,"[70, -47, -61, 62]","[8715, 28808, 29589, 259]",88.1,-0.1,-0.77,-0.13593,-5e-05,-0.98049,-0.02066,0.02941,0.02443,0.2866,0.001,0.0,0,0,0,0,0,0,0
17:00:03.561267,"[70, -47, -61, 62]","[8715, 28808, 29589, 259]",88.16,-0.22,-0.82,-0.13593,-5e-05,-0.98049,-0.02066,0.02941,0.02443,0.2866,0.001,0.0,0,0,0,0,0,0,0
17:00:03.571612,"[55, -66, -62, 67]","[10392, 26959, 27892, 2007]",88.16,-0.22,-0.82,-0.13593,-5e-05,-0.98049,-0.02066,0.02941,0.02443,0.2866,0.001,0.0,0,0,0,0,0,0,0
17:00:03.571612,"[55, -66, -62, 67]","[10392, 26959, 27892, 2007]",88.16,-0.22,-0.82,-0.13593,-5e-05,-0.98049,-0.02066,0.02941,0.02443,0.2866,0.001,0.0,0,0,0,0,0,0,0
17:00:03.588611,"[55, -66, -62, 67]","[10392, 26959, 27892, 2007]",88.16,-0.22,-0.82,-0.13593,-5e-05,-0.98049,-0.02066,0.02941,0.02443,0.2866,0.001,0.0,0,0,0,0,0,0,0
17:00:03.612946,"[55, -66, -62, 67]","[10392, 26959, 27892, 2007]",88.16,-0.22,-0.82,-0.13593,-5e-05,-0.98049,-0.02066,0.02941,0.02443,0.2866,0.001,0.0,0,0,0,0,0,0,0
17:00:03.613943,"[55, -66, -62, 67]","[10392, 26959, 27892, 2007]",88.16,-0.22,-0.82,0.15714,0.03528,-1.01408,0.012,0.01516,-0.01001,0.2866,0.001,0.0,0,0,0,0,0,0,0
17:00:03.632944,"[66, -79, -71, 91]","[12385, 24995, 26001, 4036]",88.16,-0.22,-0.82,0.15714,0.03528,-1.01408,0.012,0.01516,-0.01001,0.2866,0.001,0.0,0,0,0,0,0,0,0
17:00:03.633930,"[66, -79, -71, 91]","[12385, 24995, 26001, 4036]",88.16,-0.22,-0.82,0.15714,0.03528,-1.01408,0.012,0.01516,-0.01001,0.2866,0.001,0.0,0,0,0,0,0,0,0
17:00:03.648949,"[66, -79, -71, 91]","[12385, 24995, 26001, 4036]",88.16,-0.22,-0.82,0.15714,0.03528,-1.01408,0.012,0.01516,-0.01001,0.2866,0.001,0.0,0,0,0,0,0,0,0
17:00:03.669491,"[67, -60, -70, 70]","[14174, 23132, 24050, 6001]",88.16,-0.22,-0.82,0.15714,0.03528,-1.01408,0.012,0.01516,-0.01001,0.2866,0.001,0.0,0,0,0,0,0,0,0
17:00:03.670487,"[67, -60, -70, 70]","[14174, 23132, 24050, 6001]",88.16,-0.22,-0.82,0.15714,0.03528,-1.01408,0.012,0.01516,-0.01001,0.2866,0.001,0.0,0,0,0,0,0,0,0
17:00:03.689529,"[67, -60, -70, 70]","[14174, 23132, 24050, 6001]",88.16,-0.22,-0.82,0.15714,0.03528,-1.01408,0.012,0.01516,-0.01001,0.2866,0.001,0.0,0,0,0,0,0,0,0
17:00:03.713227,"[67, -60, -70, 70]","[14174, 23132, 24050, 6001]",88.16,-0.22,-0.82,0.15714,0.03528,-1.01408,0.012,0.01516,-0.01001,0.2866,0.001,0.0,0,0,0,0,0,0,0
17:00:03.714221,"[67, -60, -70, 70]","[14174, 23132, 24050, 6001]",88.16,-0.22,-0.82,-0.07486,-0.02283,-1.00001,-0.01928,-0.02691,0.05939,0.2866,0.001,0.0,0,0,0,0,0,0,0
17:00:03.731210,"[64, -64, -69, 53]","[15913, 21290, 22310, 7863]",88.16,-0.22,-0.82,-0.07486,-0.02283,-1.00001,-0.01928,-0.02691,0.05939,0.2866,0.001,0.0,0,0,0,0,0,0,0
17:00:03.732233,"[64, -64, -69, 53]","[15913, 21290, 22310, 7863]",88.16,-0.22,-0.82,-0.07486,-0.02283,-1.00001,-0.01928,-0.02691,0.05939,0.2866,0.001,0.0,0,0,0,0,0,0,0
17:00:03.753348,"[64, -64, -69, 53]","[15913, 21290, 22310, 7863]",88.26,-0.26,-0.86,-0.07486,-0.02283,-1.00001,-0.01928,-0.02691,0.05939,0.2866,0.001,0.0,0,0,0,0,0,0,0
17:00:03.753348,"[64, -64, -69, 53]","[15913, 21290, 22310, 7863]",88.26,-0.26,-0.86,-0.07486,-0.02283,-1.00001,-0.01928,-0.02691,0.05939,0.2866,0.001,0.0,0,0,0,0,0,0,0
17:00:03.773335,"[60, -53, -55, 71]","[17536, 19644, 20785, 9450]",88.26,-0.26,-0.86,-0.07486,-0.02283,-1.00001,-0.01928,-0.02691,0.05939,0.2866,0.001,0.0,0,0,0,0,0,0,0
17:00:03.773335,"[60, -53, -55, 71]","[17536, 19644, 20785, 9450]",88.26,-0.26,-0.86,-0.07486,-0.02283,-1.00001,-0.01928,-0.02691,0.05939,0.2866,0.001,0.0,0,0,0,0,0,0,0
17:00:03.792373,"[60, -53, -55, 71]","[17536, 19644, 20785, 9450]",88.26,-0.26,-0.86,-0.07486,-0.02283,-1.00001,-0.01928,-0.02691,0.05939,0.2866,0.001,0.0,0,0,0,0,0,0,0
17:00:03.811728,"[60, -53, -55, 71]","[17536, 19644, 20785, 9450]",88.26,-0.26,-0.86,-0.07486,-0.02283,-1.00001,-0.01928,-0.02691,0.05939,0.2866,0.001,0.0,0,0,0,0,0,0,0
17:00:03.813766,"[60, -53, -55, 71]","[17536, 19644, 20785, 9450]",88.26,-0.26,-0.86,-0.03562,0.00256,-0.97279,0.01149,0.07307,-0.02571,0.2866,0.001,0.0,0,0,0,0,0,0,0
17:00:03.834239,"[82, -81, -74, 74]","[19343, 17771, 18972, 11267]",88.26,-0.26,-0.86,-0.03562,0.00256,-0.97279,0.01149,0.07307,-0.02571,0.2866,0.001,0.0,0,0,0,0,0,0,0
17:00:03.835234,"[82, -81, -74, 74]","[19343, 17771, 18972, 11267]",88.26,-0.26,-0.86,-0.03562,0.00256,-0.97279,0.01149,0.07307,-0.02571,0.2866,0.001,0.0,0,0,0,0,0,0,0
17:00:03.853283,"[82, -81, -74, 74]","[19343, 17771, 18972, 11267]",88.26,-0.26,-0.86,-0.03562,0.00256,-0.97279,0.01149,0.07307,-0.02571,0.2866,0.001,0.0,0,0,0,0,0,0,0
17:00:03.876507,"[75, -82, -66, 82]","[21276, 15766, 16984, 13543]",88.26,-0.26,-0.86,-0.03562,0.00256,-0.97279,0.01149,0.07307,-0.02571,0.2866,0.001,0.0,0,0,0,0,0,0,0
17:00:03.877511,"[75, -82, -66, 82]","[21276, 15766, 16984, 13543]",88.26,-0.26,-0.86,-0.03562,0.00256,-0.97279,0.01149,0.07307,-0.02571,0.2866,0.001,0.0,0,0,0,0,0,0,0
17:00:03.893534,"[75, -82, -66, 82]","[21276, 15766, 16984, 13543]",88.26,-0.26,-0.86,-0.03562,0.00256,-0.97279,0.01149,0.07307,-0.02571,0.2866,0.001,0.0,0,0,0,0,0,0,0
17:00:03.912119,"[75, -82, -66, 82]","[21276, 15766, 16984, 13543]",88.26,-0.26,-0.86,-0.03562,0.00256,-0.97279,0.01149,0.07307,-0.02571,0.2866,0.001,0.0,0,0,0,0,0,0,0
17:00:03.913113,"[75, -82, -66, 82]","[21276, 15766, 16984, 13543]",88.26,-0.26,-0.86,0.09953,0.02972,-1.00741,-0.03554,0.02383,-0.00554,0.2866,0.001,0.0,0,0,0,0,0,0,0
17:00:03.935925,"[67, -69, -62, 85]","[23270, 13720, 14852, 15626]",88.26,-0.26,-0.86,0.09953,0.02972,-1.00741,-0.03554,0.02383,-0.00554,0.2866,0.001,0.0,0,0,0,0,0,0,0
17:00:03.935925,"[67, -69, -62, 85]","[23270, 13720, 14852, 15626]",88.26,-0.26,-0.86,0.09953,0.02972,-1.00741,-0.03554,0.02383,-0.00554,0.30079,0.31166,0.0,0,0,0,0,0,0,0
17:00:03.936927,"[67, -69, -62, 85]","[23270, 13720, 14852, 15626]",88.26,-0.26,-0.86,0.09953,0.02972,-1.00741,-0.03554,0.02383,-0.00554,0.30079,0.31166,0.0,0,0,0,0,0,0,0
17:00:03.953949,"[67, -69, -62, 85]","[23270, 13720, 14852, 15626]",88.26,-0.26,-0.86,0.09953,0.02972,-1.00741,-0.03554,0.02383,-0.00554,0.30079,0.31166,0.0,0,0,0,0,0,0,0
17:00:03.955474,"[67, -69, -62, 85]","[23270, 13720, 14852, 15626]",88.28,-0.12,-0.84,0.09953,0.02972,-1.00741,-0.03554,0.02383,-0.00554,0.30079,0.31166,0.0,0,0,0,0,0,0,0
17:00:03.973966,"[70, -66, -74, 67]","[25162, 11768, 12987, 17561]",88.28,-0.12,-0.84,0.09953,0.02972,-1.00741,-0.03554,0.02383,-0.00554,0.30079,0.31166,0.0,0,0,0,0,0,0,0
17:00:03.974977,"[70, -66, -74, 67]","[25162, 11768, 12987, 17561]",88.28,-0.12,-0.84,0.09953,0.02972,-1.00741,-0.03554,0.02383,-0.00554,0.30079,0.31166,0.0,0,0,0,0,0,0,0
17:00:03.989960,"[70, -66, -74, 67]","[25162, 11768, 12987, 17561]",88.28,-0.12,-0.84,0.09953,0.02972,-1.00741,-0.03554,0.02383,-0.00554,0.30079,0.31166,0.0,0,0,0,0,0,0,0
17:00:04.036014,"[66, -64, -69, 57]","[26947, 9953, 11295, 19422]",88.28,-0.12,-0.84,-0.08813,0.05317,-0.98116,0.07109,-0.00503,-0.09754,0.30079,0.31166,0.0,0,0,0,0,0,0,0
17:00:04.037014,"[66, -64, -69, 57]","[26947, 9953, 11295, 19422]",88.28,-0.12,-0.84,-0.08813,0.05317,-0.98116,0.07109,-0.00503,-0.09754,0.30079,0.31166,0.0,0,0,0,0,0,0,0
17:00:04.038023,"[66, -64, -69, 57]","[26947, 9953, 11295, 19422]",88.28,-0.12,-0.84,-0.08813,0.05317,-0.98116,0.07109,-0.00503,-0.09754,0.30079,0.31166,0.0,0,0,0,0,0,0,0
17:00:04.052975,"[66, -64, -69, 57]","[26947, 9953, 11295, 19422]",88.28,-0.12,-0.84,-0.08813,0.05317,-0.98116,0.07109,-0.00503,-0.09754,0.30079,0.31166,0.0,0,0,0,0,0,0,0
17:00:04.073083,"[66, -64, -69, 57]","[26947, 9953, 11295, 19422]",88.28,-0.12,-0.84,-0.08813,0.05317,-0.98116,0.07109,-0.00503,-0.09754,0.30079,0.31166,0.0,0,0,0,0,0,0,0
17:00:04.094128,"[65, -64, -66, 91]","[28892, 7983, 9381, 21389]",88.28,-0.12,-0.84,-0.08813,0.05317,-0.98116,0.07109,-0.00503,-0.09754,0.30079,0.31166,0.0,0,0,0,0,0,0,0
17:00:04.094128,"[65, -64, -66, 91]","[28892, 7983, 9381, 21389]",88.28,-0.12,-0.84,-0.08813,0.05317,-0.98116,0.07109,-0.00503,-0.09754,0.30079,0.31166,0.0,0,0,0,0,0,0,0
17:00:04.111187,"[65, -64, -66, 91]","[28892, 7983, 9381, 21389]",88.28,-0.12,-0.84,-0.08813,0.05317,-0.98116,0.07109,-0.00503,-0.09754,0.30079,0.31166,0.0,0,0,0,0,0,0,0
17:00:04.133191,"[88, -69, -87, 79]","[30859, 5906, 7409, 23452]",88.28,-0.12,-0.84,0.04911,-0.00124,-1.01602,0.0302,0.01424,0.02163,0.30079,0.31166,0.0,0,0,0,0,0,0,0
17:00:04.134189,"[88, -69, -87, 79]","[30859, 5906, 7409, 23452]",88.28,-0.12,-0.84,0.04911,-0.00124,-1.01602,0.0302,0.01424,0.02163,0.30079,0.31166,0.0,0,0,0,0,0,0,0
17:00:04.134189,"[88, -69, -87, 79]","[30859, 5906, 7409, 23452]",88.28,-0.12,-0.84,0.04911,-0.00124,-1.01602,0.0302,0.01424,0.02163,0.30079,0.31166,0.0,0,0,0,0,0,0,0
17:00:04.150647,"[88, -69, -87, 79]","[30859, 5906, 7409, 23452]",88.28,-0.12,-0.84,0.04911,-0.00124,-1.01602,0.0302,0.01424,0.02163,0.30079,0.31166,0.0,0,0,0,0,0,0,0
17:00:04.169807,"[88, -69, -87, 79]","[30859, 5906, 7409, 23452]",88.28,-0.12,-0.84,0.04911,-0.00124,-1.01602,0.0302,0.01424,0.02163,0.30079,0.31166,0.0,0,0,0,0,0,0,0
17:00:04.170827,"[88, -69, -87, 79]","[30859, 5906, 7409, 23452]",88.28,-0.05,-0.87,0.04911,-0.00124,-1.01602,0.0302,0.01424,0.02163,0.30079,0.31166,0.0,0,0,0,0,0,0,0
17:00:04.195835,"[80, -85, -72, 79]","[149, 3791, 5300, 25668]",88.28,-0.05,-0.87,0.04911,-0.00124,-1.01602,0.0302,0.01424,0.02163,0.30079,0.31166,0.0,0,0,0,0,0,0,0
17:00:04.196825,"[80, -85, -72, 79]","[149, 3791, 5300, 25668]",88.28,-0.05,-0.87,0.04911,-0.00124,-1.01602,0.0302,0.01424,0.02163,0.30079,0.31166,0.0,0,0,0,0,0,0,0
17:00:04.209379,"[80, -85, -72, 79]","[149, 3791, 5300, 25668]",88.28,-0.05,-0.87,0.04911,-0.00124,-1.01602,0.0302,0.01424,0.02163,0.30079,0.31166,0.0,0,0,0,0,0,0,0
17:00:04.233380,"[67, -76, -69, 72]","[2152, 1765, 3308, 27734]",88.28,-0.05,-0.87,0.04911,-0.00124,-1.01602,0.0302,0.01424,0.02163,0.30079,0.31166,0.0,0,0,0,0,0,0,0
17:00:04.234384,"[67, -76, -69, 72]","[2152, 1765, 3308, 27734]",88.28,-0.05,-0.87,0.0052,0.00272,-0.96983,0.00428,0.0448,-0.01599,0.30079,0.31166,0.0,0,0,0,0,0,0,0
17:00:04.234384,"[67, -76, -69, 72]","[2152, 1765, 3308, 27734]",88.28,-0.05,-0.87,0.0052,0.00272,-0.96983,0.00428,0.0448,-0.01599,0.30079,0.31166,0.0,0,0,0,0,0,0,0
17:00:04.252415,"[67, -76, -69, 72]","[2152, 1765, 3308, 27734]",88.28,-0.05,-0.87,0.0052,0.00272,-0.96983,0.00428,0.0448,-0.01599,0.30079,0.31166,0.0,0,0,0,0,0,0,0
17:00:04.272806,"[67, -76, -69, 72]","[2152, 1765, 3308, 27734]",88.28,-0.05,-0.87,0.0052,0.00272,-0.96983,0.00428,0.0448,-0.01599,0.30079,0.31166,0.0,0,0,0,0,0,0,0
17:00:04.291791,"[71, -61, -72, 74]","[4078, 32603, 1444, 29709]",88.28,-0.05,-0.87,0.0052,0.00272,-0.96983,0.00428,0.0448,-0.01599,0.30079,0.31166,0.0,0,0,0,0,0,0,0
17:00:04.292781,"[71, -61, -72, 74]","[4078, 32603, 1444, 29709]",88.28,-0.05,-0.87,0.0052,0.00272,-0.96983,0.00428,0.0448,-0.01599,0.30079,0.31166,0.0,0,0,0,0,0,0,0
17:00:04.310603,"[71, -61, -72, 74]","[4078, 32603, 1444, 29709]",88.28,-0.05,-0.87,0.0052,0.00272,-0.96983,0.00428,0.0448,-0.01599,0.30079,0.31166,0.0,0,0,0,0,0,0,0
17:00:04.332880,"[73, -85, -69, 70]","[5866, 30548, 32322, 31622]",88.28,-0.05,-0.87,0.0052,0.00272,-0.96983,0.00428,0.0448,-0.01599,0.30079,0.31166,0.0,0,0,0,0,0,0,0
17:00:04.333886,"[73, -85, -69, 70]","[5866, 30548, 32322, 31622]",88.28,-0.05,-0.87,-0.08297,0.00639,-0.9985,0.01035,-0.00884,-2e-05,0.30079,0.31166,0.0,0,0,0,0,0,0,0
17:00:04.333886,"[73, -85, -69, 70]","[5866, 30548, 32322, 31622]",88.28,-0.05,-0.87,-0.08297,0.00639,-0.9985,0.01035,-0.00884,-2e-05,0.30079,0.31166,0.0,0,0,0,0,0,0,0
17:00:04.350973,"[73, -85, -69, 70]","[5866, 30548, 32322, 31622]",88.28,-0.05,-0.87,-0.08297,0.00639,-0.9985,0.01035,-0.00884,-2e-05,0.30079,0.31166,0.0,0,0,0,0,0,0,0
17:00:04.385411,"[73, -85, -69, 70]","[5866, 30548, 32322, 31622]",88.25,-0.05,-0.88,-0.08297,0.00639,-0.9985,0.01035,-0.00884,-2e-05,0.30079,0.31166,0.0,0,0,0,0,0,0,0
17:00:04.385411,"[73, -85, -69, 70]","[5866, 30548, 32322, 31622]",88.25,-0.05,-0.88,-0.08297,0.00639,-0.9985,0.01035,-0.00884,-2e-05,0.30079,0.31166,0.0,0,0,0,0,0,0,0
17:00:04.411275,"[63, -88, -65, 70]","[7924, 28559, 30232, 1014]",88.25,-0.05,-0.88,-0.08297,0.00639,-0.9985,0.01035,-0.00884,-2e-05,0.30079,0.31166,0.0,0,0,0,0,0,0,0
17:00:04.412166,"[63, -88, -65, 70]","[7924, 28559, 30232, 1014]",88.25,-0.05,-0.88,-0.08297,0.00639,-0.9985,0.01035,-0.00884,-2e-05,0.30079,0.31166,0.0,0,0,0,0,0,0,0
17:00:04.430144,"[63, -88, -65, 70]","[7924, 28559, 30232, 1014]",88.25,-0.05,-0.88,-0.08297,0.00639,-0.9985,0.01035,-0.00884,-2e-05,0.30079,0.31166,0.0,0,0,0,0,0,0,0
17:00:04.470413,"[63, -64, -62, 59]","[9834, 26592, 28364, 3024]",88.25,-0.05,-0.88,-0.08297,0.00639,-0.9985,0.01035,-0.00884,-2e-05,0.30079,0.31166,0.0,0,0,0,0,0,0,0
17:00:04.471074,"[63, -64, -62, 59]","[9834, 26592, 28364, 3024]",88.25,-0.05,-0.88,0.08503,0.03146,-0.97573,0.02465,-0.00935,-0.05056,0.30079,0.31166,0.0,0,0,0,0,0,0,0
17:00:04.472505,"[63, -64, -62, 59]","[9834, 26592, 28364, 3024]",88.25,-0.05,-0.88,0.08503,0.03146,-0.97573,0.02465,-0.00935,-0.05056,0.30079,0.31166,0.0,0,0,0,0,0,0,0
17:00:04.478131,"[63, -64, -62, 59]","[9834, 26592, 28364, 3024]",88.25,-0.05,-0.88,0.08503,0.03146,-0.97573,0.02465,-0.00935,-0.05056,0.30079,0.31166,0.0,0,0,0,0,0,0,0
17:00:04.494142,"[63, -64, -62, 59]","[9834, 26592, 28364, 3024]",88.25,-0.05,-0.88,0.08503,0.03146,-0.97573,0.02465,-0.00935,-0.05056,0.30079,0.31166,0.0,0,0,0,0,0,0,0
17:00:04.511191,"[47, -56, -50, 48]","[11413, 24968, 26855, 4648]",88.25,-0.05,-0.88,0.08503,0.03146,-0.97573,0.02465,-0.00935,-0.05056,0.30079,0.31166,0.0,0,0,0,0,0,0,0
17:00:04.512194,"[47, -56, -50, 48]","[11413, 24968, 26855, 4648]",88.25,-0.05,-0.88,0.08503,0.03146,-0.97573,0.02465,-0.00935,-0.05056,0.30079,0.31166,0.0,0,0,0,0,0,0,0
17:00:04.531186,"[47, -56, -50, 48]","[11413, 24968, 26855, 4648]",88.25,-0.05,-0.88,0.08503,0.03146,-0.97573,0.02465,-0.00935,-0.05056,0.30079,0.31166,0.0,0,0,0,0,0,0,0
17:00:04.554255,"[31, -44, -40, 41]","[12508, 23709, 25683, 5758]",88.25,-0.05,-0.88,-0.20389,0.0029,-0.99374,0.03401,0.02929,0.0001,0.30079,0.31166,0.0,0,0,0,0,0,0,0
17:00:04.556164,"[31, -44, -40, 41]","[12508, 23709, 25683, 5758]",88.25,-0.05,-0.88,-0.20389,0.0029,-0.99374,0.03401,0.02929,0.0001,0.30079,0.31166,0.0,0,0,0,0,0,0,0
17:00:04.556743,"[31, -44, -40, 41]","[12508, 23709, 25683, 5758]",88.25,-0.05,-0.88,-0.20389,0.0029,-0.99374,0.03401,0.02929,0.0001,0.30079,0.31166,0.0,0,0,0,0,0,0,0
17:00:04.573386,"[31, -44, -40, 41]","[12508, 23709, 25683, 5758]",88.25,-0.05,-0.88,-0.20389,0.0029,-0.99374,0.03401,0.02929,0.0001,0.30079,0.31166,0.0,0,0,0,0,0,0,0
17:00:04.592409,"[31, -44, -40, 41]","[12508, 23709, 25683, 5758]",88.25,-0.05,-0.88,-0.20389,0.0029,-0.99374,0.03401,0.02929,0.0001,0.30079,0.31166,0.0,0,0,0,0,0,0,0
17:00:04.593407,"[31, -44, -40, 41]","[12508, 23709, 25683, 5758]",88.26,-0.11,-0.84,-0.20389,0.0029,-0.99374,0.03401,0.02929,0.0001,0.30079,0.31166,0.0,0,0,0,0,0,0,0
17:00:04.612842,"[49, -55, -46, 39]","[13698, 22507, 24505, 6918]",88.26,-0.11,-0.84,-0.20389,0.0029,-0.99374,0.03401,0.02929,0.0001,0.30079,0.31166,0.0,0,0,0,0,0,0,0
17:00:04.613831,"[49, -55, -46, 39]","[13698, 22507, 24505, 6918]",88.26,-0.11,-0.84,-0.20389,0.0029,-0.99374,0.03401,0.02929,0.0001,0.30079,0.31166,0.0,0,0,0,0,0,0,0
17:00:04.628905,"[49, -55, -46, 39]","[13698, 22507, 24505, 6918]",88.26,-0.11,-0.84,-0.20389,0.0029,-0.99374,0.03401,0.02929,0.0001,0.30079,0.31166,0.0,0,0,0,0,0,0,0
17:00:04.653952,"[43, -54, -48, 49]","[14975, 21234, 23306, 8193]",88.26,-0.11,-0.84,-0.20389,0.0029,-0.99374,0.03401,0.02929,0.0001,0.30079,0.31166,0.0,0,0,0,0,0,0,0
17:00:04.655491,"[43, -54, -48, 49]","[14975, 21234, 23306, 8193]",88.26,-0.11,-0.84,0.01473,0.0265,-0.99561,0.0118,0.02265,-0.00111,0.30079,0.31166,0.0,0,0,0,0,0,0,0
17:00:04.655491,"[43, -54, -48, 49]","[14975, 21234, 23306, 8193]",88.26,-0.11,-0.84,0.01473,0.0265,-0.99561,0.0118,0.02265,-0.00111,0.30079,0.31166,0.0,0,0,0,0,0,0,0
17:00:04.672808,"[43, -54, -48, 49]","[14975, 21234, 23306, 8193]",88.26,-0.11,-0.84,0.01473,0.0265,-0.99561,0.0118,0.02265,-0.00111,0.30079,0.31166,0.0,0,0,0,0,0,0,0
17:00:04.691827,"[43, -54, -48, 49]","[14975, 21234, 23306, 8193]",88.26,-0.11,-0.84,0.01473,0.0265,-0.99561,0.0118,0.02265,-0.00111,0.30079,0.31166,0.0,0,0,0,0,0,0,0
17:00:04.713058,"[36, -43, -37, 52]","[16262, 19838, 21941, 9595]",88.26,-0.11,-0.84,0.01473,0.0265,-0.99561,0.0118,0.02265,-0.00111,0.30079,0.31166,0.0,0,0,0,0,0,0,0
17:00:04.714559,"[36, -43, -37, 52]","[16262, 19838, 21941, 9595]",88.26,-0.11,-0.84,0.01473,0.0265,-0.99561,0.0118,0.02265,-0.00111,0.30079,0.31166,0.0,0,0,0,0,0,0,0
17:00:04.730938,"[36, -43, -37, 52]","[16262, 19838, 21941, 9595]",88.26,-0.11,-0.84,0.01473,0.0265,-0.99561,0.0118,0.02265,-0.00111,0.30079,0.31166,0.0,0,0,0,0,0,0,0
17:00:04.757330,"[25, -26, -22, 22]","[17202, 18844, 21008, 10588]",88.26,-0.11,-0.84,-0.00261,0.02692,-0.9946,0.00033,-0.03039,0.00067,0.30079,0.31166,0.0,0,0,0,0,0,0,0
17:00:04.757330,"[25, -26, -22, 22]","[17202, 18844, 21008, 10588]",88.26,-0.11,-0.84,-0.00261,0.02692,-0.9946,0.00033,-0.03039,0.00067,0.30079,0.31166,0.0,0,0,0,0,0,0,0
17:00:04.758639,"[25, -26, -22, 22]","[17202, 18844, 21008, 10588]",88.26,-0.11,-0.84,-0.00261,0.02692,-0.9946,0.00033,-0.03039,0.00067,0.30079,0.31166,0.0,0,0,0,0,0,0,0
17:00:04.773249,"[25, -26, -22, 22]","[17202, 18844, 21008, 10588]",88.26,-0.11,-0.84,-0.00261,0.02692,-0.9946,0.00033,-0.03039,0.00067,0.30079,0.31166,0.0,0,0,0,0,0,0,0
17:00:04.794320,"[25, -26, -22, 22]","[17202, 18844, 21008, 10588]",88.37,-0.18,-0.88,-0.00261,0.02692,-0.9946,0.00033,-0.03039,0.00067,0.30079,0.31166,0.0,0,0,0,0,0,0,0
17:00:04.795325,"[25, -26, -22, 22]","[17202, 18844, 21008, 10588]",88.37,-0.18,-0.88,-0.00261,0.02692,-0.9946,0.00033,-0.03039,0.00067,0.30079,0.31166,0.0,0,0,0,0,0,0,0
17:00:04.814060,"[-2, -29, -27, 15]","[17868, 18037, 20220, 11297]",88.37,-0.18,-0.88,-0.00261,0.02692,-0.9946,0.00033,-0.03039,0.00067,0.30079,0.31166,0.0,0,0,0,0,0,0,0
17:00:04.815043,"[-2, -29, -27, 15]","[17868, 18037, 20220, 11297]",88.37,-0.18,-0.88,-0.00261,0.02692,-0.9946,0.00033,-0.03039,0.00067,0.30079,0.31166,0.0,0,0,0,0,0,0,0
17:00:04.831681,"[-2, -29, -27, 15]","[17868, 18037, 20220, 11297]",88.37,-0.18,-0.88,-0.00261,0.02692,-0.9946,0.00033,-0.03039,0.00067,0.30079,0.31166,0.0,0,0,0,0,0,0,0
17:00:04.850842,"[-2, -29, -27, 15]","[17868, 18037, 20220, 11297]",88.37,-0.18,-0.88,-0.00261,0.02692,-0.9946,0.00033,-0.03039,0.00067,0.30079,0.31166,0.0,0,0,0,0,0,0,0
17:00:04.850842,"[-2, -29, -27, 15]","[17868, 18037, 20220, 11297]",88.37,-0.18,-0.88,-0.1783,0.00233,-1.00024,0.02356,0.02981,0.66863,0.30079,0.31166,0.0,0,0,0,0,0,0,0
17:00:04.870571,"[-42, -15, -7, -23]","[15498, 16492, 18945, 8888]",88.37,-0.18,-0.88,-0.1783,0.00233,-1.00024,0.02356,0.02981,0.66863,0.30079,0.31166,0.0,0,0,0,0,0,0,0
17:00:04.870571,"[-42, -15, -7, -23]","[15498, 16492, 18945, 8888]",88.37,-0.18,-0.88,-0.1783,0.00233,-1.00024,0.02356,0.02981,0.66863,0.30079,0.31166,0.0,0,0,0,0,0,0,0
17:00:04.893818,"[-42, -15, -7, -23]","[15498, 16492, 18945, 8888]",88.37,-0.18,-0.88,-0.1783,0.00233,-1.00024,0.02356,0.02981,0.66863,0.30079,0.31166,0.0,0,0,0,0,0,0,0
17:00:04.909549,"[-42, -15, -7, -23]","[15498, 16492, 18945, 8888]",88.37,-0.18,-0.88,-0.1783,0.00233,-1.00024,0.02356,0.02981,0.66863,0.30079,0.31166,0.0,0,0,0,0,0,0,0
17:00:04.910550,"[-42, -15, -7, -23]","[15498, 16492, 18945, 8888]",88.37,-0.18,-0.88,-0.1783,0.00233,-1.00024,0.02356,0.02981,0.66863,0.30079,0.31166,0.0,0,0,0,0,0,0,0
17:00:04.931311,"[-42, -15, -7, -23]","[15498, 16492, 18945, 8888]",88.37,-0.18,-0.88,-0.1783,0.00233,-1.00024,0.02356,0.02981,0.66863,0.30079,0.31166,0.0,0,0,0,0,0,0,0
17:00:04.949621,"[-42, -15, -7, -23]","[15498, 16492, 18945, 8888]",88.37,-0.18,-0.88,-0.01378,-0.00369,-1.01921,-0.01694,0.02163,0.75138,0.30079,0.31166,0.0,0,0,0,0,0,0,0
17:00:04.950622,"[-42, -15, -7, -23]","[15498, 16492, 18945, 8888]",88.37,-0.18,-0.88,-0.01378,-0.00369,-1.01921,-0.01694,0.02163,0.75138,0.30079,0.31166,0.0,0,0,0,0,0,0,0
17:00:04.972583,"[-46, -17, -8, -32]","[14437, 16134, 18721, 7954]",88.37,-0.18,-0.88,-0.01378,-0.00369,-1.01921,-0.01694,0.02163,0.75138,0.30079,0.31166,0.0,0,0,0,0,0,0,0
17:00:04.973591,"[-46, -17, -8, -32]","[14437, 16134, 18721, 7954]",88.37,-0.18,-0.88,-0.01378,-0.00369,-1.01921,-0.01694,0.02163,0.75138,0.30079,0.31166,0.0,0,0,0,0,0,0,0
17:00:04.973591,"[-46, -17, -8, -32]","[14437, 16134, 18721, 7954]",88.37,-0.18,-0.88,-0.01378,-0.00369,-1.01921,-0.01694,0.02163,0.75138,0.30396,0.56155,0.0,0,0,0,0,0,0,0
17:00:04.991608,"[-46, -17, -8, -32]","[14437, 16134, 18721, 7954]",88.37,-0.18,-0.88,-0.01378,-0.00369,-1.01921,-0.01694,0.02163,0.75138,0.30396,0.56155,0.0,0,0,0,0,0,0,0
17:00:04.991608,"[-46, -17, -8, -32]","[14437, 16134, 18721, 7954]",95.32,-0.07,-0.82,-0.01378,-0.00369,-1.01921,-0.01694,0.02163,0.75138,0.30396,0.56155,0.0,0,0,0,0,0,0,0
17:00:05.012212,"[-37, -22, -25, -30]","[12054, 15117, 18181, 5711]",95.32,-0.07,-0.82,-0.01378,-0.00369,-1.01921,-0.01694,0.02163,0.75138,0.30396,0.56155,0.0,0,0,0,0,0,0,0
17:00:05.013212,"[-37, -22, -25, -30]","[12054, 15117, 18181, 5711]",95.32,-0.07,-0.82,-0.01378,-0.00369,-1.01921,-0.01694,0.02163,0.75138,0.30396,0.56155,0.0,0,0,0,0,0,0,0
17:00:05.031471,"[-37, -22, -25, -30]","[12054, 15117, 18181, 5711]",95.32,-0.07,-0.82,-0.01378,-0.00369,-1.01921,-0.01694,0.02163,0.75138,0.30396,0.56155,0.0,0,0,0,0,0,0,0
17:00:05.053640,"[-37, -22, -25, -30]","[12054, 15117, 18181, 5711]",95.32,-0.07,-0.82,-0.01378,-0.00369,-1.01921,-0.01694,0.02163,0.75138,0.30396,0.56155,0.0,0,0,0,0,0,0,0
17:00:05.053640,"[-37, -22, -25, -30]","[12054, 15117, 18181, 5711]",95.32,-0.07,-0.82,-0.01378,-0.00369,-1.01921,-0.01694,0.02163,0.75138,0.30396,0.56155,0.0,0,0,0,0,0,0,0
17:00:05.072503,"[-37, -22, -25, -30]","[12054, 15117, 18181, 5711]",95.32,-0.07,-0.82,-0.01378,-0.00369,-1.01921,-0.01694,0.02163,0.75138,0.30396,0.56155,0.0,0,0,0,0,0,0,0
17:00:05.072503,"[-37, -22, -25, -30]","[12054, 15117, 18181, 5711]",95.32,-0.07,-0.82,-0.01378,-0.00369,-1.01921,-0.01694,0.02163,0.75138,0.30396,0.56155,0.0,0,0,0,0,0,0,0
17:00:05.090531,"[-37, -22, -25, -30]","[12054, 15117, 18181, 5711]",95.32,-0.07,-0.82,-0.01378,-0.00369,-1.01921,-0.01694,0.02163,0.75138,0.30396,0.56155,0.0,0,0,0,0,0,0,0
17:00:05.109272,"[-21, -30, -40, -26]","[10447, 13769, 16620, 4099]",95.32,-0.07,-0.82,-0.01378,-0.00369,-1.01921,-0.01694,0.02163,0.75138,0.30396,0.56155,0.0,0,0,0,0,0,0,0
17:00:05.110301,"[-21, -30, -40, -26]","[10447, 13769, 16620, 4099]",95.32,-0.07,-0.82,-0.01378,-0.00369,-1.01921,-0.01694,0.02163,0.75138,0.30396,0.56155,0.0,0,0,0,0,0,0,0
17:00:05.132615,"[-21, -30, -40, -26]","[10447, 13769, 16620, 4099]",95.32,-0.07,-0.82,-0.01378,-0.00369,-1.01921,-0.01694,0.02163,0.75138,0.30396,0.56155,0.0,0,0,0,0,0,0,0
17:00:05.163663,"[-21, -30, -40, -26]","[10447, 13769, 16620, 4099]",95.32,-0.07,-0.82,-0.01378,-0.00369,-1.01921,-0.01694,0.02163,0.75138,0.30396,0.56155,0.0,0,0,0,0,0,0,0
17:00:05.164667,"[-21, -30, -40, -26]","[10447, 13769, 16620, 4099]",95.32,-0.07,-0.82,0.05329,0.01799,-1.00298,0.00742,-0.01715,0.73051,0.30396,0.56155,0.0,0,0,0,0,0,0,0
17:00:05.172613,"[-21, -30, -40, -26]","[10447, 13769, 16620, 4099]",95.32,-0.07,-0.82,0.05329,0.01799,-1.00298,0.00742,-0.01715,0.73051,0.30396,0.56155,0.0,0,0,0,0,0,0,0
17:00:05.172613,"[-21, -30, -40, -26]","[10447, 13769, 16620, 4099]",95.32,-0.07,-0.82,0.05329,0.01799,-1.00298,0.00742,-0.01715,0.73051,0.30396,0.56155,0.0,0,0,0,0,0,0,0
17:00:05.191652,"[-21, -30, -40, -26]","[10447, 13769, 16620, 4099]",95.32,-0.07,-0.82,0.05329,0.01799,-1.00298,0.00742,-0.01715,0.73051,0.30396,0.56155,0.0,0,0,0,0,0,0,0
17:00:05.191652,"[-21, -30, -40, -26]","[10447, 13769, 16620, 4099]",103.82,0.0,-0.88,0.05329,0.01799,-1.00298,0.00742,-0.01715,0.73051,0.30396,0.56155,0.0,0,0,0,0,0,0,0
17:00:05.214225,"[-24, -34, -25, -24]","[9685, 11815, 14302, 2928]",103.82,0.0,-0.88,0.05329,0.01799,-1.00298,0.00742,-0.01715,0.73051,0.30396,0.56155,0.0,0,0,0,0,0,0,0
17:00:05.216227,"[-24, -34, -25, -24]","[9685, 11815, 14302, 2928]",103.82,0.0,-0.88,0.05329,0.01799,-1.00298,0.00742,-0.01715,0.73051,0.30396,0.56155,0.0,0,0,0,0,0,0,0
17:00:05.230339,"[-24, -34, -25, -24]","[9685, 11815, 14302, 2928]",103.82,0.0,-0.88,0.05329,0.01799,-1.00298,0.00742,-0.01715,0.73051,0.30396,0.56155,0.0,0,0,0,0,0,0,0
17:00:05.250354,"[-24, -34, -25, -24]","[9685, 11815, 14302, 2928]",103.82,0.0,-0.88,0.05329,0.01799,-1.00298,0.00742,-0.01715,0.73051,0.30396,0.56155,0.0,0,0,0,0,0,0,0
17:00:05.250354,"[-24, -34, -25, -24]","[9685, 11815, 14302, 2928]",103.82,0.0,-0.88,-0.05104,0.03812,-1.00513,0.01787,-0.01965,0.78454,0.30396,0.56155,0.0,0,0,0,0,0,0,0
17:00:05.272024,"[-24, -38, -43, -35]","[9092, 10879, 13262, 2216]",103.82,0.0,-0.88,-0.05104,0.03812,-1.00513,0.01787,-0.01965,0.78454,0.30396,0.56155,0.0,0,0,0,0,0,0,0
17:00:05.272024,"[-24, -38, -43, -35]","[9092, 10879, 13262, 2216]",103.82,0.0,-0.88,-0.05104,0.03812,-1.00513,0.01787,-0.01965,0.78454,0.30396,0.56155,0.0,0,0,0,0,0,0,0
17:00:05.290028,"[-24, -38, -43, -35]","[9092, 10879, 13262, 2216]",103.82,0.0,-0.88,-0.05104,0.03812,-1.00513,0.01787,-0.01965,0.78454,0.30396,0.56155,0.0,0,0,0,0,0,0,0
17:00:05.309617,"[-34, -28, -22, -31]","[8231, 9962, 12436, 1388]",103.82,0.0,-0.88,-0.05104,0.03812,-1.00513,0.01787,-0.01965,0.78454,0.30396,0.56155,0.0,0,0,0,0,0,0,0
17:00:05.309617,"[-34, -28, -22, -31]","[8231, 9962, 12436, 1388]",103.82,0.0,-0.88,-0.05104,0.03812,-1.00513,0.01787,-0.01965,0.78454,0.30396,0.56155,0.0,0,0,0,0,0,0,0
17:00:05.331256,"[-34, -28, -22, -31]","[8231, 9962, 12436, 1388]",103.82,0.0,-0.88,-0.05104,0.03812,-1.00513,0.01787,-0.01965,0.78454,0.30396,0.56155,0.0,0,0,0,0,0,0,0
17:00:05.353459,"[-34, -28, -22, -31]","[8231, 9962, 12436, 1388]",103.82,0.0,-0.88,-0.05104,0.03812,-1.00513,0.01787,-0.01965,0.78454,0.30396,0.56155,0.0,0,0,0,0,0,0,0
17:00:05.354271,"[-34, -28, -22, -31]","[8231, 9962, 12436, 1388]",103.82,0.0,-0.88,-0.05665,-0.00077,-0.99447,-0.01746,0.00684,0.78396,0.30396,0.56155,0.0,0,0,0,0,0,0,0
17:00:05.374755,"[-34, -28, -22, -31]","[8231, 9962, 12436, 1388]",103.82,0.0,-0.88,-0.05665,-0.00077,-0.99447,-0.01746,0.00684,0.78396,0.30396,0.56155,0.0,0,0,0,0,0,0,0
17:00:05.375284,"[-34, -28, -22, -31]","[8231, 9962, 12436, 1388]",103.82,0.0,-0.88,-0.05665,-0.00077,-0.99447,-0.01746,0.00684,0.78396,0.30396,0.56155,0.0,0,0,0,0,0,0,0
17:00:05.408356,"[-34, -28, -22, -31]","[8231, 9962, 12436, 1388]",103.82,0.0,-0.88,-0.05665,-0.00077,-0.99447,-0.01746,0.00684,0.78396,0.30396,0.56155,0.0,0,0,0,0,0,0,0
17:00:05.409873,"[-34, -28, -22, -31]","[8231, 9962, 12436, 1388]",112.69,-0.01,-0.92,-0.05665,-0.00077,-0.99447,-0.01746,0.00684,0.78396,0.30396,0.56155,0.0,0,0,0,0,0,0,0
17:00:05.416896,"[-45, -35, -20, -43]","[6337, 8562, 11183, 32408]",112.69,-0.01,-0.92,-0.05665,-0.00077,-0.99447,-0.01746,0.00684,0.78396,0.30396,0.56155,0.0,0,0,0,0,0,0,0
17:00:05.416896,"[-45, -35, -20, -43]","[6337, 8562, 11183, 32408]",112.69,-0.01,-0.92,-0.05665,-0.00077,-0.99447,-0.01746,0.00684,0.78396,0.30396,0.56155,0.0,0,0,0,0,0,0,0
17:00:05.428716,"[-45, -35, -20, -43]","[6337, 8562, 11183, 32408]",112.69,-0.01,-0.92,-0.05665,-0.00077,-0.99447,-0.01746,0.00684,0.78396,0.30396,0.56155,0.0,0,0,0,0,0,0,0
17:00:05.450292,"[-45, -35, -20, -43]","[6337, 8562, 11183, 32408]",112.69,-0.01,-0.92,0.00763,0.01174,-1.00291,-0.0021,0.01593,0.7692,0.30396,0.56155,0.0,0,0,0,0,0,0,0
17:00:05.450292,"[-45, -35, -20, -43]","[6337, 8562, 11183, 32408]",112.69,-0.01,-0.92,0.00763,0.01174,-1.00291,-0.0021,0.01593,0.7692,0.30396,0.56155,0.0,0,0,0,0,0,0,0
17:00:05.471257,"[-45, -35, -20, -43]","[6337, 8562, 11183, 32408]",112.69,-0.01,-0.92,0.00763,0.01174,-1.00291,-0.0021,0.01593,0.7692,0.30396,0.56155,0.0,0,0,0,0,0,0,0
17:00:05.472262,"[-45, -35, -20, -43]","[6337, 8562, 11183, 32408]",112.69,-0.01,-0.92,0.00763,0.01174,-1.00291,-0.0021,0.01593,0.7692,0.30396,0.56155,0.0,0,0,0,0,0,0,0
17:00:05.490264,"[-45, -35, -20, -43]","[6337, 8562, 11183, 32408]",112.69,-0.01,-0.92,0.00763,0.01174,-1.00291,-0.0021,0.01593,0.7692,0.30396,0.56155,0.0,0,0,0,0,0,0,0
17:00:05.513612,"[-35, -30, -28, -31]","[4325, 7155, 9926, 30561]",112.69,-0.01,-0.92,0.00763,0.01174,-1.00291,-0.0021,0.01593,0.7692,0.30396,0.56155,0.0,0,0,0,0,0,0,0
17:00:05.514606,"[-35, -30, -28, -31]","[4325, 7155, 9926, 30561]",112.69,-0.01,-0.92,0.00763,0.01174,-1.00291,-0.0021,0.01593,0.7692,0.30396,0.56155,0.0,0,0,0,0,0,0,0
17:00:05.532611,"[-35, -30, -28, -31]","[4325, 7155, 9926, 30561]",112.69,-0.01,-0.92,0.00763,0.01174,-1.00291,-0.0021,0.01593,0.7692,0.30396,0.56155,0.0,0,0,0,0,0,0,0
17:00:05.552659,"[-35, -30, -28, -31]","[4325, 7155, 9926, 30561]",112.69,-0.01,-0.92,0.00763,0.01174,-1.00291,-0.0021,0.01593,0.7692,0.30396,0.56155,0.0,0,0,0,0,0,0,0
17:00:05.553645,"[-35, -30, -28, -31]","[4325, 7155, 9926, 30561]",112.69,-0.01,-0.92,0.03866,0.00318,-1.00019,0.01096,0.00547,0.81711,0.30396,0.56155,0.0,0,0,0,0,0,0,0
17:00:05.573001,"[-35, -30, -28, -31]","[4325, 7155, 9926, 30561]",112.69,-0.01,-0.92,0.03866,0.00318,-1.00019,0.01096,0.00547,0.81711,0.30396,0.56155,0.0,0,0,0,0,0,0,0
17:00:05.573001,"[-35, -30, -28, -31]","[4325, 7155, 9926, 30561]",112.69,-0.01,-0.92,0.03866,0.00318,-1.00019,0.01096,0.00547,0.81711,0.30396,0.56155,0.0,0,0,0,0,0,0,0
17:00:05.589103,"[-35, -30, -28, -31]","[4325, 7155, 9926, 30561]",121.67,0.06,-0.94,0.03866,0.00318,-1.00019,0.01096,0.00547,0.81711,0.30396,0.56155,0.0,0,0,0,0,0,0,0
17:00:05.589103,"[-35, -30, -28, -31]","[4325, 7155, 9926, 30561]",121.67,0.06,-0.94,0.03866,0.00318,-1.00019,0.01096,0.00547,0.81711,0.30396,0.56155,0.0,0,0,0,0,0,0,0
17:00:05.613228,"[-34, -26, -46, -21]","[2721, 5414, 8217, 29003]",121.67,0.06,-0.94,0.03866,0.00318,-1.00019,0.01096,0.00547,0.81711,0.30396,0.56155,0.0,0,0,0,0,0,0,0
17:00:05.614237,"[-34, -26, -46, -21]","[2721, 5414, 8217, 29003]",121.67,0.06,-0.94,0.03866,0.00318,-1.00019,0.01096,0.00547,0.81711,0.30396,0.56155,0.0,0,0,0,0,0,0,0
17:00:05.631706,"[-34, -26, -46, -21]","[2721, 5414, 8217, 29003]",121.67,0.06,-0.94,0.03866,0.00318,-1.00019,0.01096,0.00547,0.81711,0.30396,0.56155,0.0,0,0,0,0,0,0,0
17:00:05.653780,"[-34, -26, -46, -21]","[2721, 5414, 8217, 29003]",121.67,0.06,-0.94,0.03866,0.00318,-1.00019,0.01096,0.00547,0.81711,0.30396,0.56155,0.0,0,0,0,0,0,0,0
17:00:05.655941,"[-34, -26, -46, -21]","[2721, 5414, 8217, 29003]",121.67,0.06,-0.94,0.00981,0.01032,-0.99868,0.02753,-0.03081,0.73563,0.30396,0.56155,0.0,0,0,0,0,0,0,0
17:00:05.674389,"[-25, -34, -41, -32]","[1983, 4525, 7322, 28279]",121.67,0.06,-0.94,0.00981,0.01032,-0.99868,0.02753,-0.03081,0.73563,0.30396,0.56155,0.0,0,0,0,0,0,0,0
17:00:05.676052,"[-25, -34, -41, -32]","[1983, 4525, 7322, 28279]",121.67,0.06,-0.94,0.00981,0.01032,-0.99868,0.02753,-0.03081,0.73563,0.30396,0.56155,0.0,0,0,0,0,0,0,0
17:00:05.691488,"[-25, -34, -41, -32]","[1983, 4525, 7322, 28279]",121.67,0.06,-0.94,0.00981,0.01032,-0.99868,0.02753,-0.03081,0.73563,0.30396,0.56155,0.0,0,0,0,0,0,0,0
17:00:05.710022,"[-15, -28, -41, -29]","[1296, 3595, 6308, 27503]",121.67,0.06,-0.94,0.00981,0.01032,-0.99868,0.02753,-0.03081,0.73563,0.30396,0.56155,0.0,0,0,0,0,0,0,0
17:00:05.712029,"[-15, -28, -41, -29]","[1296, 3595, 6308, 27503]",121.67,0.06,-0.94,0.00981,0.01032,-0.99868,0.02753,-0.03081,0.73563,0.30396,0.56155,0.0,0,0,0,0,0,0,0
17:00:05.732881,"[-15, -28, -41, -29]","[1296, 3595, 6308, 27503]",121.67,0.06,-0.94,0.00981,0.01032,-0.99868,0.02753,-0.03081,0.73563,0.30396,0.56155,0.0,0,0,0,0,0,0,0
17:00:05.753994,"[-15, -28, -41, -29]","[1296, 3595, 6308, 27503]",121.67,0.06,-0.94,0.00981,0.01032,-0.99868,0.02753,-0.03081,0.73563,0.30396,0.56155,0.0,0,0,0,0,0,0,0
17:00:05.753994,"[-15, -28, -41, -29]","[1296, 3595, 6308, 27503]",121.67,0.06,-0.94,-0.02121,0.03148,-1.00052,-0.00583,0.01033,0.75075,0.30396,0.56155,0.0,0,0,0,0,0,0,0
17:00:05.773963,"[-15, -28, -41, -29]","[1296, 3595, 6308, 27503]",121.67,0.06,-0.94,-0.02121,0.03148,-1.00052,-0.00583,0.01033,0.75075,0.30396,0.56155,0.0,0,0,0,0,0,0,0
17:00:05.773963,"[-15, -28, -41, -29]","[1296, 3595, 6308, 27503]",121.67,0.06,-0.94,-0.02121,0.03148,-1.00052,-0.00583,0.01033,0.75075,0.30396,0.56155,0.0,0,0,0,0,0,0,0
17:00:05.794259,"[-15, -28, -41, -29]","[1296, 3595, 6308, 27503]",130.58,0.11,-0.84,-0.02121,0.03148,-1.00052,-0.00583,0.01033,0.75075,0.30396,0.56155,0.0,0,0,0,0,0,0,0
17:00:05.795282,"[-15, -28, -41, -29]","[1296, 3595, 6308, 27503]",130.58,0.11,-0.84,-0.02121,0.03148,-1.00052,-0.00583,0.01033,0.75075,0.30396,0.56155,0.0,0,0,0,0,0,0,0
17:00:05.814810,"[-28, -31, -26, -37]","[32614, 2042, 4546, 25831]",130.58,0.11,-0.84,-0.02121,0.03148,-1.00052,-0.00583,0.01033,0.75075,0.30396,0.56155,0.0,0,0,0,0,0,0,0
17:00:05.815802,"[-28, -31, -26, -37]","[32614, 2042, 4546, 25831]",130.58,0.11,-0.84,-0.02121,0.03148,-1.00052,-0.00583,0.01033,0.75075,0.30396,0.56155,0.0,0,0,0,0,0,0,0
17:00:05.828887,"[-28, -31, -26, -37]","[32614, 2042, 4546, 25831]",130.58,0.11,-0.84,-0.02121,0.03148,-1.00052,-0.00583,0.01033,0.75075,0.30396,0.56155,0.0,0,0,0,0,0,0,0
17:00:05.851906,"[-28, -31, -26, -37]","[32614, 2042, 4546, 25831]",130.58,0.11,-0.84,-0.02164,0.0029,-0.99326,-0.00217,-0.00493,0.85909,0.30396,0.56155,0.0,0,0,0,0,0,0,0
17:00:05.851906,"[-28, -31, -26, -37]","[32614, 2042, 4546, 25831]",130.58,0.11,-0.84,-0.02164,0.0029,-0.99326,-0.00217,-0.00493,0.85909,0.30396,0.56155,0.0,0,0,0,0,0,0,0
17:00:05.872101,"[-32, -34, -31, -35]","[31686, 1166, 3768, 25016]",130.58,0.11,-0.84,-0.02164,0.0029,-0.99326,-0.00217,-0.00493,0.85909,0.30396,0.56155,0.0,0,0,0,0,0,0,0
17:00:05.874080,"[-32, -34, -31, -35]","[31686, 1166, 3768, 25016]",130.58,0.11,-0.84,-0.02164,0.0029,-0.99326,-0.00217,-0.00493,0.85909,0.30396,0.56155,0.0,0,0,0,0,0,0,0
17:00:05.902573,"[-32, -34, -31, -35]","[31686, 1166, 3768, 25016]",130.58,0.11,-0.84,-0.02164,0.0029,-0.99326,-0.00217,-0.00493,0.85909,0.30396,0.56155,0.0,0,0,0,0,0,0,0
17:00:05.911334,"[-41, -26, -28, -29]","[30819, 460, 3048, 24218]",130.58,0.11,-0.84,-0.02164,0.0029,-0.99326,-0.00217,-0.00493,0.85909,0.30396,0.56155,0.0,0,0,0,0,0,0,0
17:00:05.912362,"[-41, -26, -28, -29]","[30819, 460, 3048, 24218]",130.58,0.11,-0.84,-0.02164,0.0029,-0.99326,-0.00217,-0.00493,0.85909,0.30396,0.56155,0.0,0,0,0,0,0,0,0
17:00:05.934351,"[-41, -26, -28, -29]","[30819, 460, 3048, 24218]",130.58,0.11,-0.84,-0.02164,0.0029,-0.99326,-0.00217,-0.00493,0.85909,0.30396,0.56155,0.0,0,0,0,0,0,0,0
17:00:05.955736,"[-41, -26, -28, -29]","[30819, 460, 3048, 24218]",130.58,0.11,-0.84,-0.02164,0.0029,-0.99326,-0.00217,-0.00493,0.85909,0.30396,0.56155,0.0,0,0,0,0,0,0,0
17:00:05.956766,"[-41, -26, -28, -29]","[30819, 460, 3048, 24218]",130.58,0.11,-0.84,-0.00619,0.01575,-1.02462,0.00801,0.00861,0.74131,0.30396,0.56155,0.0,0,0,0,0,0,0,0
17:00:05.971355,"[-31, -26, -23, -23]","[29906, 32502, 2335, 23234]",130.58,0.11,-0.84,-0.00619,0.01575,-1.02462,0.00801,0.00861,0.74131,0.30396,0.56155,0.0,0,0,0,0,0,0,0
17:00:05.973299,"[-31, -26, -23, -23]","[29906, 32502, 2335, 23234]",130.58,0.11,-0.84,-0.00619,0.01575,-1.02462,0.00801,0.00861,0.74131,0.30396,0.56155,0.0,0,0,0,0,0,0,0
17:00:05.974310,"[-31, -26, -23, -23]","[29906, 32502, 2335, 23234]",130.58,0.11,-0.84,-0.00619,0.01575,-1.02462,0.00801,0.00861,0.74131,0.30486,0.56587,0.0,0,0,0,0,0,0,0
17:00:06.013781,"[-31, -26, -23, -23]","[29906, 32502, 2335, 23234]",130.58,0.11,-0.84,-0.00619,0.01575,-1.02462,0.00801,0.00861,0.74131,0.30486,0.56587,0.0,0,0,0,0,0,0,0
17:00:06.014805,"[-31, -26, -23, -23]","[29906, 32502, 2335, 23234]",139.51,0.17,-0.76,-0.00619,0.01575,-1.02462,0.00801,0.00861,0.74131,0.30486,0.56587,0.0,0,0,0,0,0,0,0
17:00:06.033641,"[-29, -32, -27, -33]","[28999, 31626, 1675, 22406]",139.51,0.17,-0.76,-0.00619,0.01575,-1.02462,0.00801,0.00861,0.74131,0.30486,0.56587,0.0,0,0,0,0,0,0,0
17:00:06.034646,"[-29, -32, -27, -33]","[28999, 31626, 1675, 22406]",139.51,0.17,-0.76,-0.00619,0.01575,-1.02462,0.00801,0.00861,0.74131,0.30486,0.56587,0.0,0,0,0,0,0,0,0
17:00:06.052708,"[-29, -32, -27, -33]","[28999, 31626, 1675, 22406]",139.51,0.17,-0.76,-0.00619,0.01575,-1.02462,0.00801,0.00861,0.74131,0.30486,0.56587,0.0,0,0,0,0,0,0,0
17:00:06.071726,"[-24, -31, -33, -28]","[28079, 30789, 853, 21630]",139.51,0.17,-0.76,-0.00619,0.01575,-1.02462,0.00801,0.00861,0.74131,0.30486,0.56587,0.0,0,0,0,0,0,0,0
17:00:06.071726,"[-24, -31, -33, -28]","[28079, 30789, 853, 21630]",139.51,0.17,-0.76,0.04541,0.03789,-1.00225,0.00464,1e-05,0.79147,0.30486,0.56587,0.0,0,0,0,0,0,0,0
17:00:06.072740,"[-24, -31, -33, -28]","[28079, 30789, 853, 21630]",139.51,0.17,-0.76,0.04541,0.03789,-1.00225,0.00464,1e-05,0.79147,0.30486,0.56587,0.0,0,0,0,0,0,0,0
17:00:06.089738,"[-24, -31, -33, -28]","[28079, 30789, 853, 21630]",139.51,0.17,-0.76,0.04541,0.03789,-1.00225,0.00464,1e-05,0.79147,0.30486,0.56587,0.0,0,0,0,0,0,0,0
17:00:06.111732,"[-24, -31, -33, -28]","[28079, 30789, 853, 21630]",139.51,0.17,-0.76,0.04541,0.03789,-1.00225,0.00464,1e-05,0.79147,0.30486,0.56587,0.0,0,0,0,0,0,0,0
17:00:06.129151,"[-24, -31, -33, -28]","[28079, 30789, 853, 21630]",139.51,0.17,-0.76,0.04541,0.03789,-1.00225,0.00464,1e-05,0.79147,0.30486,0.56587,0.0,0,0,0,0,0,0,0
17:00:06.133082,"[-28, -26, -30, -32]","[27394, 29999, 32694, 20798]",139.51,0.17,-0.76,0.04541,0.03789,-1.00225,0.00464,1e-05,0.79147,0.30486,0.56587,0.0,0,0,0,0,0,0,0
17:00:06.153128,"[-28, -26, -30, -32]","[27394, 29999, 32694, 20798]",139.51,0.17,-0.76,0.04541,0.03789,-1.00225,0.00464,1e-05,0.79147,0.30486,0.56587,0.0,0,0,0,0,0,0,0
17:00:06.171431,"[-28, -26, -30, -32]","[27394, 29999, 32694, 20798]",139.51,0.17,-0.76,0.04541,0.03789,-1.00225,0.00464,1e-05,0.79147,0.30486,0.56587,0.0,0,0,0,0,0,0,0
17:00:06.175906,"[-23, -24, -35, -31]","[26636, 29170, 31819, 19952]",139.51,0.17,-0.76,0.00319,-0.00989,-0.98602,0.00583,-0.00792,0.79552,0.30486,0.56587,0.0,0,0,0,0,0,0,0
17:00:06.176957,"[-23, -24, -35, -31]","[26636, 29170, 31819, 19952]",139.51,0.17,-0.76,0.00319,-0.00989,-0.98602,0.00583,-0.00792,0.79552,0.30486,0.56587,0.0,0,0,0,0,0,0,0
17:00:06.193109,"[-23, -24, -35, -31]","[26636, 29170, 31819, 19952]",139.51,0.17,-0.76,0.00319,-0.00989,-0.98602,0.00583,-0.00792,0.79552,0.30486,0.56587,0.0,0,0,0,0,0,0,0
17:00:06.210865,"[-23, -24, -35, -31]","[26636, 29170, 31819, 19952]",139.51,0.17,-0.76,0.00319,-0.00989,-0.98602,0.00583,-0.00792,0.79552,0.30486,0.56587,0.0,0,0,0,0,0,0,0
17:00:06.211881,"[-23, -24, -35, -31]","[26636, 29170, 31819, 19952]",148.56,0.23,-0.69,0.00319,-0.00989,-0.98602,0.00583,-0.00792,0.79552,0.30486,0.56587,0.0,0,0,0,0,0,0,0
17:00:06.243907,"[-28, -33, -32, -26]","[25903, 28318, 30896, 19205]",148.56,0.23,-0.69,0.00319,-0.00989,-0.98602,0.00583,-0.00792,0.79552,0.30486,0.56587,0.0,0,0,0,0,0,0,0
17:00:06.243907,"[-28, -33, -32, -26]","[25903, 28318, 30896, 19205]",148.56,0.23,-0.69,0.00319,-0.00989,-0.98602,0.00583,-0.00792,0.79552,0.30486,0.56587,0.0,0,0,0,0,0,0,0
17:00:06.249919,"[-28, -33, -32, -26]","[25903, 28318, 30896, 19205]",148.56,0.23,-0.69,0.00319,-0.00989,-0.98602,0.00583,-0.00792,0.79552,0.30486,0.56587,0.0,0,0,0,0,0,0,0
17:00:06.273841,"[-33, -28, -35, -33]","[25202, 27521, 29991, 18422]",148.56,0.23,-0.69,0.00319,-0.00989,-0.98602,0.00583,-0.00792,0.79552,0.30486,0.56587,0.0,0,0,0,0,0,0,0
17:00:06.273841,"[-33, -28, -35, -33]","[25202, 27521, 29991, 18422]",148.56,0.23,-0.69,-0.03229,-0.00304,-0.98238,0.02016,-0.00107,0.80975,0.30486,0.56587,0.0,0,0,0,0,0,0,0
17:00:06.273841,"[-33, -28, -35, -33]","[25202, 27521, 29991, 18422]",148.56,0.23,-0.69,-0.03229,-0.00304,-0.98238,0.02016,-0.00107,0.80975,0.30486,0.56587,0.0,0,0,0,0,0,0,0
17:00:06.289838,"[-33, -28, -35, -33]","[25202, 27521, 29991, 18422]",148.56,0.23,-0.69,-0.03229,-0.00304,-0.98238,0.02016,-0.00107,0.80975,0.30486,0.56587,0.0,0,0,0,0,0,0,0
17:00:06.309410,"[-33, -28, -35, -33]","[25202, 27521, 29991, 18422]",148.56,0.23,-0.69,-0.03229,-0.00304,-0.98238,0.02016,-0.00107,0.80975,0.30486,0.56587,0.0,0,0,0,0,0,0,0
17:00:06.330891,"[-29, -26, -22, -33]","[24297, 26727, 29176, 17498]",148.56,0.23,-0.69,-0.03229,-0.00304,-0.98238,0.02016,-0.00107,0.80975,0.30486,0.56587,0.0,0,0,0,0,0,0,0
17:00:06.330891,"[-29, -26, -22, -33]","[24297, 26727, 29176, 17498]",148.56,0.23,-0.69,-0.03229,-0.00304,-0.98238,0.02016,-0.00107,0.80975,0.30486,0.56587,0.0,0,0,0,0,0,0,0
17:00:06.349913,"[-29, -26, -22, -33]","[24297, 26727, 29176, 17498]",148.56,0.23,-0.69,-0.03229,-0.00304,-0.98238,0.02016,-0.00107,0.80975,0.30486,0.56587,0.0,0,0,0,0,0,0,0
17:00:06.371941,"[-28, -35, -29, -28]","[23455, 25892, 28441, 16791]",148.56,0.23,-0.69,-0.03229,-0.00304,-0.98238,0.02016,-0.00107,0.80975,0.30486,0.56587,0.0,0,0,0,0,0,0,0
17:00:06.371941,"[-28, -35, -29, -28]","[23455, 25892, 28441, 16791]",148.56,0.23,-0.69,-0.00156,0.02169,-1.0027,-0.00637,-0.00507,0.73768,0.30486,0.56587,0.0,0,0,0,0,0,0,0
17:00:06.371941,"[-28, -35, -29, -28]","[23455, 25892, 28441, 16791]",148.56,0.23,-0.69,-0.00156,0.02169,-1.0027,-0.00637,-0.00507,0.73768,0.30486,0.56587,0.0,0,0,0,0,0,0,0
17:00:06.398122,"[-28, -35, -29, -28]","[23455, 25892, 28441, 16791]",148.56,0.23,-0.69,-0.00156,0.02169,-1.0027,-0.00637,-0.00507,0.73768,0.30486,0.56587,0.0,0,0,0,0,0,0,0
17:00:06.413627,"[-28, -35, -29, -28]","[23455, 25892, 28441, 16791]",148.56,0.23,-0.69,-0.00156,0.02169,-1.0027,-0.00637,-0.00507,0.73768,0.30486,0.56587,0.0,0,0,0,0,0,0,0
17:00:06.413627,"[-28, -35, -29, -28]","[23455, 25892, 28441, 16791]",157.54,0.22,-0.64,-0.00156,0.02169,-1.0027,-0.00637,-0.00507,0.73768,0.30486,0.56587,0.0,0,0,0,0,0,0,0
17:00:06.431631,"[-40, -35, -28, -32]","[22578, 25076, 27706, 16022]",157.54,0.22,-0.64,-0.00156,0.02169,-1.0027,-0.00637,-0.00507,0.73768,0.30486,0.56587,0.0,0,0,0,0,0,0,0
17:00:06.433627,"[-40, -35, -28, -32]","[22578, 25076, 27706, 16022]",157.54,0.22,-0.64,-0.00156,0.02169,-1.0027,-0.00637,-0.00507,0.73768,0.30486,0.56587,0.0,0,0,0,0,0,0,0
17:00:06.452387,"[-40, -35, -28, -32]","[22578, 25076, 27706, 16022]",157.54,0.22,-0.64,-0.00156,0.02169,-1.0027,-0.00637,-0.00507,0.73768,0.30486,0.56587,0.0,0,0,0,0,0,0,0
17:00:06.475308,"[-33, -27, -29, -28]","[21717, 24309, 26837, 15051]",157.54,0.22,-0.64,-0.00156,0.02169,-1.0027,-0.00637,-0.00507,0.73768,0.30486,0.56587,0.0,0,0,0,0,0,0,0
17:00:06.477316,"[-33, -27, -29, -28]","[21717, 24309, 26837, 15051]",157.54,0.22,-0.64,-0.00156,0.02169,-1.0027,-0.00637,-0.00507,0.73768,0.30486,0.56587,0.0,0,0,0,0,0,0,0
17:00:06.478323,"[-33, -27, -29, -28]","[21717, 24309, 26837, 15051]",157.54,0.22,-0.64,0.00614,0.00776,-1.00077,-0.00088,0.03741,0.7766,0.30486,0.56587,0.0,0,0,0,0,0,0,0
17:00:06.492320,"[-33, -27, -29, -28]","[21717, 24309, 26837, 15051]",157.54,0.22,-0.64,0.00614,0.00776,-1.00077,-0.00088,0.03741,0.7766,0.30486,0.56587,0.0,0,0,0,0,0,0,0
17:00:06.509605,"[-33, -27, -29, -28]","[21717, 24309, 26837, 15051]",157.54,0.22,-0.64,0.00614,0.00776,-1.00077,-0.00088,0.03741,0.7766,0.30486,0.56587,0.0,0,0,0,0,0,0,0
17:00:06.533624,"[-27, -30, -27, -27]","[20886, 23513, 26162, 14326]",157.54,0.22,-0.64,0.00614,0.00776,-1.00077,-0.00088,0.03741,0.7766,0.30486,0.56587,0.0,0,0,0,0,0,0,0
17:00:06.534628,"[-27, -30, -27, -27]","[20886, 23513, 26162, 14326]",157.54,0.22,-0.64,0.00614,0.00776,-1.00077,-0.00088,0.03741,0.7766,0.30486,0.56587,0.0,0,0,0,0,0,0,0
17:00:06.551431,"[-27, -30, -27, -27]","[20886, 23513, 26162, 14326]",157.54,0.22,-0.64,0.00614,0.00776,-1.00077,-0.00088,0.03741,0.7766,0.30486,0.56587,0.0,0,0,0,0,0,0,0
17:00:06.573518,"[-29, -35, -34, -38]","[20003, 22671, 25321, 13494]",157.54,0.22,-0.64,0.00614,0.00776,-1.00077,-0.00088,0.03741,0.7766,0.30486,0.56587,0.0,0,0,0,0,0,0,0
17:00:06.574506,"[-29, -35, -34, -38]","[20003, 22671, 25321, 13494]",157.54,0.22,-0.64,-0.00162,-0.01188,-1.00111,-0.00253,-0.00169,0.84107,0.30486,0.56587,0.0,0,0,0,0,0,0,0
17:00:06.575508,"[-29, -35, -34, -38]","[20003, 22671, 25321, 13494]",157.54,0.22,-0.64,-0.00162,-0.01188,-1.00111,-0.00253,-0.00169,0.84107,0.30486,0.56587,0.0,0,0,0,0,0,0,0
17:00:06.594536,"[-29, -35, -34, -38]","[20003, 22671, 25321, 13494]",157.54,0.22,-0.64,-0.00162,-0.01188,-1.00111,-0.00253,-0.00169,0.84107,0.30486,0.56587,0.0,0,0,0,0,0,0,0
17:00:06.613079,"[-29, -35, -34, -38]","[20003, 22671, 25321, 13494]",157.54,0.22,-0.64,-0.00162,-0.01188,-1.00111,-0.00253,-0.00169,0.84107,0.30486,0.56587,0.0,0,0,0,0,0,0,0
17:00:06.615095,"[-29, -35, -34, -38]","[20003, 22671, 25321, 13494]",166.66,0.24,-0.59,-0.00162,-0.01188,-1.00111,-0.00253,-0.00169,0.84107,0.30486,0.56587,0.0,0,0,0,0,0,0,0
17:00:06.633349,"[-26, -25, -31, -32]","[19312, 21892, 24364, 12586]",166.66,0.24,-0.59,-0.00162,-0.01188,-1.00111,-0.00253,-0.00169,0.84107,0.30486,0.56587,0.0,0,0,0,0,0,0,0
17:00:06.634349,"[-26, -25, -31, -32]","[19312, 21892, 24364, 12586]",166.66,0.24,-0.59,-0.00162,-0.01188,-1.00111,-0.00253,-0.00169,0.84107,0.30486,0.56587,0.0,0,0,0,0,0,0,0
17:00:06.653217,"[-26, -25, -31, -32]","[19312, 21892, 24364, 12586]",166.66,0.24,-0.59,-0.00162,-0.01188,-1.00111,-0.00253,-0.00169,0.84107,0.30486,0.56587,0.0,0,0,0,0,0,0,0
17:00:06.674404,"[-26, -25, -31, -32]","[19312, 21892, 24364, 12586]",166.66,0.24,-0.59,-0.00162,-0.01188,-1.00111,-0.00253,-0.00169,0.84107,0.30486,0.56587,0.0,0,0,0,0,0,0,0
17:00:06.674404,"[-26, -25, -31, -32]","[19312, 21892, 24364, 12586]",166.66,0.24,-0.59,0.00405,0.01547,-0.99924,-0.01049,-0.0148,0.75289,0.30486,0.56587,0.0,0,0,0,0,0,0,0
17:00:06.693654,"[-23, -28, -32, -30]","[18518, 21139, 23614, 11823]",166.66,0.24,-0.59,0.00405,0.01547,-0.99924,-0.01049,-0.0148,0.75289,0.30486,0.56587,0.0,0,0,0,0,0,0,0
17:00:06.693654,"[-23, -28, -32, -30]","[18518, 21139, 23614, 11823]",166.66,0.24,-0.59,0.00405,0.01547,-0.99924,-0.01049,-0.0148,0.75289,0.30486,0.56587,0.0,0,0,0,0,0,0,0
17:00:06.710461,"[-23, -28, -32, -30]","[18518, 21139, 23614, 11823]",166.66,0.24,-0.59,0.00405,0.01547,-0.99924,-0.01049,-0.0148,0.75289,0.30486,0.56587,0.0,0,0,0,0,0,0,0
17:00:06.732462,"[-33, -32, -42, -29]","[17693, 20151, 22781, 11086]",166.66,0.24,-0.59,0.00405,0.01547,-0.99924,-0.01049,-0.0148,0.75289,0.30486,0.56587,0.0,0,0,0,0,0,0,0
17:00:06.733480,"[-33, -32, -42, -29]","[17693, 20151, 22781, 11086]",166.66,0.24,-0.59,0.00405,0.01547,-0.99924,-0.01049,-0.0148,0.75289,0.30486,0.56587,0.0,0,0,0,0,0,0,0
17:00:06.749559,"[-33, -32, -42, -29]","[17693, 20151, 22781, 11086]",166.66,0.24,-0.59,0.00405,0.01547,-0.99924,-0.01049,-0.0148,0.75289,0.30486,0.56587,0.0,0,0,0,0,0,0,0
17:00:06.770990,"[-33, -32, -42, -29]","[17693, 20151, 22781, 11086]",166.66,0.24,-0.59,0.00405,0.01547,-0.99924,-0.01049,-0.0148,0.75289,0.30486,0.56587,0.0,0,0,0,0,0,0,0
17:00:06.770990,"[-33, -32, -42, -29]","[17693, 20151, 22781, 11086]",166.66,0.24,-0.59,-0.00807,0.03178,-0.98592,0.00849,0.00809,0.76729,0.30486,0.56587,0.0,0,0,0,0,0,0,0
17:00:06.792041,"[-25, -24, -22, -23]","[16957, 19361, 21888, 10317]",166.66,0.24,-0.59,-0.00807,0.03178,-0.98592,0.00849,0.00809,0.76729,0.30486,0.56587,0.0,0,0,0,0,0,0,0
17:00:06.793051,"[-25, -24, -22, -23]","[16957, 19361, 21888, 10317]",166.66,0.24,-0.59,-0.00807,0.03178,-0.98592,0.00849,0.00809,0.76729,0.30486,0.56587,0.0,0,0,0,0,0,0,0
17:00:06.811716,"[-25, -24, -22, -23]","[16957, 19361, 21888, 10317]",175.62,0.24,-0.61,-0.00807,0.03178,-0.98592,0.00849,0.00809,0.76729,0.30486,0.56587,0.0,0,0,0,0,0,0,0
17:00:06.812713,"[-25, -24, -22, -23]","[16957, 19361, 21888, 10317]",175.62,0.24,-0.61,-0.00807,0.03178,-0.98592,0.00849,0.00809,0.76729,0.30486,0.56587,0.0,0,0,0,0,0,0,0
17:00:06.836705,"[-12, -3, -4, -9]","[16519, 18946, 21499, 9892]",175.62,0.24,-0.61,-0.00807,0.03178,-0.98592,0.00849,0.00809,0.76729,0.30486,0.56587,0.0,0,0,0,0,0,0,0
17:00:06.836705,"[-12, -3, -4, -9]","[16519, 18946, 21499, 9892]",175.62,0.24,-0.61,-0.00807,0.03178,-0.98592,0.00849,0.00809,0.76729,0.30486,0.56587,0.0,0,0,0,0,0,0,0
17:00:06.852839,"[-12, -3, -4, -9]","[16519, 18946, 21499, 9892]",175.62,0.24,-0.61,-0.00807,0.03178,-0.98592,0.00849,0.00809,0.76729,0.30486,0.56587,0.0,0,0,0,0,0,0,0
17:00:06.874484,"[-12, -3, -4, -9]","[16519, 18946, 21499, 9892]",175.62,0.24,-0.61,-0.00807,0.03178,-0.98592,0.00849,0.00809,0.76729,0.30486,0.56587,0.0,0,0,0,0,0,0,0
17:00:06.875499,"[-12, -3, -4, -9]","[16519, 18946, 21499, 9892]",175.62,0.24,-0.61,0.00848,0.07629,-0.99183,0.00192,0.01486,-0.04113,0.30486,0.56587,0.0,0,0,0,0,0,0,0
17:00:06.889469,"[6, 9, -3, -6]","[16457, 18928, 21512, 9814]",175.62,0.24,-0.61,0.00848,0.07629,-0.99183,0.00192,0.01486,-0.04113,0.30486,0.56587,0.0,0,0,0,0,0,0,0
17:00:06.889469,"[6, 9, -3, -6]","[16457, 18928, 21512, 9814]",175.62,0.24,-0.61,0.00848,0.07629,-0.99183,0.00192,0.01486,-0.04113,0.30486,0.56587,0.0,0,0,0,0,0,0,0
17:00:06.910565,"[6, 9, -3, -6]","[16457, 18928, 21512, 9814]",175.62,0.24,-0.61,0.00848,0.07629,-0.99183,0.00192,0.01486,-0.04113,0.30486,0.56587,0.0,0,0,0,0,0,0,0
17:00:06.935577,"[47, -4, -25, 10]","[17138, 19040, 21299, 9797]",175.62,0.24,-0.61,0.00848,0.07629,-0.99183,0.00192,0.01486,-0.04113,0.30486,0.56587,0.0,0,0,0,0,0,0,0
17:00:06.936576,"[47, -4, -25, 10]","[17138, 19040, 21299, 9797]",175.62,0.24,-0.61,0.00848,0.07629,-0.99183,0.00192,0.01486,-0.04113,0.30486,0.56587,0.0,0,0,0,0,0,0,0
17:00:06.952831,"[47, -4, -25, 10]","[17138, 19040, 21299, 9797]",175.62,0.24,-0.61,0.00848,0.07629,-0.99183,0.00192,0.01486,-0.04113,0.30486,0.56587,0.0,0,0,0,0,0,0,0
17:00:06.975795,"[47, -4, -25, 10]","[17138, 19040, 21299, 9797]",175.62,0.24,-0.61,0.00848,0.07629,-0.99183,0.00192,0.01486,-0.04113,0.30486,0.56587,0.0,0,0,0,0,0,0,0
17:00:06.976794,"[47, -4, -25, 10]","[17138, 19040, 21299, 9797]",175.62,0.24,-0.61,0.21326,-0.02403,-0.97891,0.01541,0.03758,0.16415,0.30486,0.56587,0.0,0,0,0,0,0,0,0
17:00:06.992504,"[110, -39, -72, 26]","[19344, 18480, 19803, 10322]",175.62,0.24,-0.61,0.21326,-0.02403,-0.97891,0.01541,0.03758,0.16415,0.30486,0.56587,0.0,0,0,0,0,0,0,0
17:00:06.992504,"[110, -39, -72, 26]","[19344, 18480, 19803, 10322]",175.62,0.24,-0.61,0.21326,-0.02403,-0.97891,0.01541,0.03758,0.16415,0.29468,0.57032,0.0,0,0,0,0,0,0,0
17:00:06.993505,"[110, -39, -72, 26]","[19344, 18480, 19803, 10322]",175.62,0.24,-0.61,0.21326,-0.02403,-0.97891,0.01541,0.03758,0.16415,0.29468,0.57032,0.0,0,0,0,0,0,0,0
17:00:07.010060,"[110, -39, -72, 26]","[19344, 18480, 19803, 10322]",175.62,0.24,-0.61,0.21326,-0.02403,-0.97891,0.01541,0.03758,0.16415,0.29468,0.57032,0.0,0,0,0,0,0,0,0
17:00:07.011051,"[110, -39, -72, 26]","[19344, 18480, 19803, 10322]",177.5,0.4,-0.46,0.21326,-0.02403,-0.97891,0.01541,0.03758,0.16415,0.29468,0.57032,0.0,0,0,0,0,0,0,0
17:00:07.029474,"[110, -39, -72, 26]","[19344, 18480, 19803, 10322]",177.5,0.4,-0.46,0.21326,-0.02403,-0.97891,0.01541,0.03758,0.16415,0.29468,0.57032,0.0,0,0,0,0,0,0,0
17:00:07.033494,"[70, -54, -54, 126]","[21987, 17034, 18378, 12215]",177.5,0.4,-0.46,0.21326,-0.02403,-0.97891,0.01541,0.03758,0.16415,0.29468,0.57032,0.0,0,0,0,0,0,0,0
17:00:07.053530,"[70, -54, -54, 126]","[21987, 17034, 18378, 12215]",177.5,0.4,-0.46,0.21326,-0.02403,-0.97891,0.01541,0.03758,0.16415,0.29468,0.57032,0.0,0,0,0,0,0,0,0
17:00:07.070704,"[70, -54, -54, 126]","[21987, 17034, 18378, 12215]",177.5,0.4,-0.46,0.21326,-0.02403,-0.97891,0.01541,0.03758,0.16415,0.29468,0.57032,0.0,0,0,0,0,0,0,0
17:00:07.070704,"[70, -54, -54, 126]","[21987, 17034, 18378, 12215]",177.5,0.4,-0.46,0.17644,0.08215,-0.98573,-0.00413,-0.02888,-0.13443,0.29468,0.57032,0.0,0,0,0,0,0,0,0
17:00:07.090605,"[79, -63, -55, 56]","[23788, 15545, 16752, 14856]",177.5,0.4,-0.46,0.17644,0.08215,-0.98573,-0.00413,-0.02888,-0.13443,0.29468,0.57032,0.0,0,0,0,0,0,0,0
17:00:07.091635,"[79, -63, -55, 56]","[23788, 15545, 16752, 14856]",177.5,0.4,-0.46,0.17644,0.08215,-0.98573,-0.00413,-0.02888,-0.13443,0.29468,0.57032,0.0,0,0,0,0,0,0,0
17:00:07.110613,"[79, -63, -55, 56]","[23788, 15545, 16752, 14856]",177.5,0.4,-0.46,0.17644,0.08215,-0.98573,-0.00413,-0.02888,-0.13443,0.29468,0.57032,0.0,0,0,0,0,0,0,0
17:00:07.133619,"[48, -44, -52, 59]","[25502, 14308, 15162, 16485]",177.5,0.4,-0.46,0.17644,0.08215,-0.98573,-0.00413,-0.02888,-0.13443,0.29468,0.57032,0.0,0,0,0,0,0,0,0
17:00:07.135612,"[48, -44, -52, 59]","[25502, 14308, 15162, 16485]",177.5,0.4,-0.46,0.17644,0.08215,-0.98573,-0.00413,-0.02888,-0.13443,0.29468,0.57032,0.0,0,0,0,0,0,0,0
17:00:07.152658,"[48, -44, -52, 59]","[25502, 14308, 15162, 16485]",177.5,0.4,-0.46,0.17644,0.08215,-0.98573,-0.00413,-0.02888,-0.13443,0.29468,0.57032,0.0,0,0,0,0,0,0,0
17:00:07.175376,"[48, -44, -52, 59]","[25502, 14308, 15162, 16485]",177.5,0.4,-0.46,0.17644,0.08215,-0.98573,-0.00413,-0.02888,-0.13443,0.29468,0.57032,0.0,0,0,0,0,0,0,0
17:00:07.176375,"[48, -44, -52, 59]","[25502, 14308, 15162, 16485]",177.5,0.4,-0.46,-0.18072,0.0191,-1.01468,0.01285,0.00929,-0.09728,0.29468,0.57032,0.0,0,0,0,0,0,0,0
17:00:07.194817,"[52, -44, -38, 49]","[26902, 13195, 13914, 17722]",177.5,0.4,-0.46,-0.18072,0.0191,-1.01468,0.01285,0.00929,-0.09728,0.29468,0.57032,0.0,0,0,0,0,0,0,0
17:00:07.194817,"[52, -44, -38, 49]","[26902, 13195, 13914, 17722]",177.5,0.4,-0.46,-0.18072,0.0191,-1.01468,0.01285,0.00929,-0.09728,0.29468,0.57032,0.0,0,0,0,0,0,0,0
17:00:07.209357,"[52, -44, -38, 49]","[26902, 13195, 13914, 17722]",177.5,0.4,-0.46,-0.18072,0.0191,-1.01468,0.01285,0.00929,-0.09728,0.29468,0.57032,0.0,0,0,0,0,0,0,0
17:00:07.210347,"[52, -44, -38, 49]","[26902, 13195, 13914, 17722]",176.68,0.16,-0.54,-0.18072,0.0191,-1.01468,0.01285,0.00929,-0.09728,0.29468,0.57032,0.0,0,0,0,0,0,0,0
17:00:07.232174,"[48, -33, -39, 40]","[28185, 12194, 12744, 18834]",176.68,0.16,-0.54,-0.18072,0.0191,-1.01468,0.01285,0.00929,-0.09728,0.29468,0.57032,0.0,0,0,0,0,0,0,0
17:00:07.233177,"[48, -33, -39, 40]","[28185, 12194, 12744, 18834]",176.68,0.16,-0.54,-0.18072,0.0191,-1.01468,0.01285,0.00929,-0.09728,0.29468,0.57032,0.0,0,0,0,0,0,0,0
17:00:07.252083,"[48, -33, -39, 40]","[28185, 12194, 12744, 18834]",176.68,0.16,-0.54,-0.18072,0.0191,-1.01468,0.01285,0.00929,-0.09728,0.29468,0.57032,0.0,0,0,0,0,0,0,0
17:00:07.292081,"[54, -67, -64, 53]","[29679, 10941, 11404, 20127]",176.68,0.16,-0.54,-0.18072,0.0191,-1.01468,0.01285,0.00929,-0.09728,0.29468,0.57032,0.0,0,0,0,0,0,0,0
17:00:07.293078,"[54, -67, -64, 53]","[29679, 10941, 11404, 20127]",176.68,0.16,-0.54,-0.18072,0.0191,-1.01468,0.01285,0.00929,-0.09728,0.29468,0.57032,0.0,0,0,0,0,0,0,0
17:00:07.294096,"[54, -67, -64, 53]","[29679, 10941, 11404, 20127]",176.68,0.16,-0.54,0.17138,0.01502,-1.00019,0.01656,0.05157,-0.03891,0.29468,0.57032,0.0,0,0,0,0,0,0,0
17:00:07.313808,"[54, -67, -64, 53]","[29679, 10941, 11404, 20127]",176.68,0.16,-0.54,0.17138,0.01502,-1.00019,0.01656,0.05157,-0.03891,0.29468,0.57032,0.0,0,0,0,0,0,0,0
17:00:07.329800,"[54, -67, -64, 53]","[29679, 10941, 11404, 20127]",176.68,0.16,-0.54,0.17138,0.01502,-1.00019,0.01656,0.05157,-0.03891,0.29468,0.57032,0.0,0,0,0,0,0,0,0
17:00:07.353832,"[56, -62, -72, 63]","[31496, 9293, 9417, 21867]",176.68,0.16,-0.54,0.17138,0.01502,-1.00019,0.01656,0.05157,-0.03891,0.29468,0.57032,0.0,0,0,0,0,0,0,0
17:00:07.355842,"[56, -62, -72, 63]","[31496, 9293, 9417, 21867]",176.68,0.16,-0.54,0.17138,0.01502,-1.00019,0.01656,0.05157,-0.03891,0.29468,0.57032,0.0,0,0,0,0,0,0,0
17:00:07.371405,"[56, -62, -72, 63]","[31496, 9293, 9417, 21867]",176.68,0.16,-0.54,0.17138,0.01502,-1.00019,0.01656,0.05157,-0.03891,0.29468,0.57032,0.0,0,0,0,0,0,0,0
17:00:07.395981,"[66, -59, -69, 67]","[545, 7521, 7609, 23588]",176.68,0.16,-0.54,0.17138,0.01502,-1.00019,0.01656,0.05157,-0.03891,0.29468,0.57032,0.0,0,0,0,0,0,0,0
17:00:07.395981,"[66, -59, -69, 67]","[545, 7521, 7609, 23588]",176.68,0.16,-0.54,-0.00759,0.0255,-1.004,0.04049,-0.06288,0.05458,0.29468,0.57032,0.0,0,0,0,0,0,0,0
17:00:07.396986,"[66, -59, -69, 67]","[545, 7521, 7609, 23588]",176.68,0.16,-0.54,-0.00759,0.0255,-1.004,0.04049,-0.06288,0.05458,0.29468,0.57032,0.0,0,0,0,0,0,0,0
17:00:07.411106,"[66, -59, -69, 67]","[545, 7521, 7609, 23588]",176.68,0.16,-0.54,-0.00759,0.0255,-1.004,0.04049,-0.06288,0.05458,0.29468,0.57032,0.0,0,0,0,0,0,0,0
17:00:07.435418,"[66, -59, -69, 67]","[545, 7521, 7609, 23588]",176.68,0.16,-0.54,-0.00759,0.0255,-1.004,0.04049,-0.06288,0.05458,0.29468,0.57032,0.0,0,0,0,0,0,0,0
17:00:07.436418,"[66, -59, -69, 67]","[545, 7521, 7609, 23588]",176.71,0.01,-0.57,-0.00759,0.0255,-1.004,0.04049,-0.06288,0.05458,0.29468,0.57032,0.0,0,0,0,0,0,0,0
17:00:07.454012,"[46, -59, -61, 51]","[2051, 5889, 5968, 25260]",176.71,0.01,-0.57,-0.00759,0.0255,-1.004,0.04049,-0.06288,0.05458,0.29468,0.57032,0.0,0,0,0,0,0,0,0
17:00:07.455006,"[46, -59, -61, 51]","[2051, 5889, 5968, 25260]",176.71,0.01,-0.57,-0.00759,0.0255,-1.004,0.04049,-0.06288,0.05458,0.29468,0.57032,0.0,0,0,0,0,0,0,0
17:00:07.471361,"[46, -59, -61, 51]","[2051, 5889, 5968, 25260]",176.71,0.01,-0.57,-0.00759,0.0255,-1.004,0.04049,-0.06288,0.05458,0.29468,0.57032,0.0,0,0,0,0,0,0,0
17:00:07.488888,"[46, -59, -61, 51]","[2051, 5889, 5968, 25260]",176.71,0.01,-0.57,-0.00759,0.0255,-1.004,0.04049,-0.06288,0.05458,0.29468,0.57032,0.0,0,0,0,0,0,0,0
